Folder: Batterylab/00_Test_Data (part 2)

File: EIS_Batteryname_0.0_Temperature_0.0°C_1.0C_precharge_0.0%25SOC_1.csv
Time [s],Channel,Voltage [V],Current [A],Ah-Step [Ah],Ah-Step Counter [Ah],SOC [%],Ah-Step BaSyTec [Ah],Temperature [Â°C],BatteryVoltagePeakPeak,BatteryCurrentPeakPeak,Capacity [mAh],C-Rate,ReZf_5.0Hz,lmZf_5.0Hz,PhaseZ_5.0Hz,Frequency_5.0Hz,ReZf_10.0Hz,lmZf_10.0Hz,PhaseZ_10.0Hz,Frequency_10.0Hz,ReZf_15.0Hz,lmZf_15.0Hz,PhaseZ_15.0Hz,Frequency_15.0Hz,ReZf_20.0Hz,lmZf_20.0Hz,PhaseZ_20.0Hz,Frequency_20.0Hz,ReZf_25.0Hz,lmZf_25.0Hz,PhaseZ_25.0Hz,Frequency_25.0Hz,ReZf_35.0Hz,lmZf_35.0Hz,PhaseZ_35.0Hz,Frequency_35.0Hz,ReZf_55.0Hz,lmZf_55.0Hz,PhaseZ_55.0Hz,Frequency_55.0Hz,ReZf_80.0Hz,lmZf_80.0Hz,PhaseZ_80.0Hz,Frequency_80.0Hz,ReZf_120.0Hz,lmZf_120.0Hz,PhaseZ_120.0Hz,Frequency_120.0Hz,ReZf_180.0Hz,lmZf_180.0Hz,PhaseZ_180.0Hz,Frequency_180.0Hz,ReZf_270.0Hz,lmZf_270.0Hz,PhaseZ_270.0Hz,Frequency_270.0Hz,ReZf_405.0Hz,lmZf_405.0Hz,PhaseZ_405.0Hz,Frequency_405.0Hz,ReZf_605.0Hz,lmZf_605.0Hz,PhaseZ_605.0Hz,Frequency_605.0Hz,ReZf_900.0Hz,lmZf_900.0Hz,PhaseZ_900.0Hz,Frequency_900.0Hz,ReZf_1340.0Hz,lmZf_1340.0Hz,PhaseZ_1340.0Hz,Frequency_1340.0Hz,ReZf_2000.0Hz,lmZf_2000.0Hz,PhaseZ_2000.0Hz,Frequency_2000.0Hz
19.6899,3,3.8017,2.9,,0,,1.46556,25.9,0.00865233,0.348313,0.0,1.0,0.0319246,-0.00207379,-3.71666,5.0,0.030821,-0.00296547,-5.49585,10.0,0.0302786,-0.00352191,-6.63465,15.0,0.0296895,-0.0038465,-7.38197,20.0,0.02895,-0.0041214,-8.10235,25.0,0.0278852,-0.00485705,-9.88068,35.0,0.0263555,-0.00562024,-12.0379,55.0,0.0249158,-0.00611762,-13.7951,80.0,0.02301,-0.00658603,-15.9724,120.0,0.0205786,-0.00681143,-18.3143,180.0,0.0179791,-0.00644351,-19.7171,270.0,0.0155488,-0.00513832,-18.2868,405.0,0.0136611,-0.00301318,-12.4384,605.0,0.012677,-0.000392818,-1.77484,900.0,0.0125986,0.00242895,10.9125,1340.0,0.0132423,0.00530736,21.8404,2000.0
37.4176,3,3.8184,2.899,,0,,1.47972,26.03,0.00855904,0.346449,0.0,1.0,0.0313023,-0.00214718,-3.92405,5.0,0.0308132,-0.00276788,-5.13297,10.0,0.0298848,-0.00324988,-6.20635,15.0,0.0296873,-0.00406308,-7.79322,20.0,0.0286693,-0.00443543,-8.7945,25.0,0.0279077,-0.00472213,-9.6038,35.0,0.0262818,-0.00540597,-11.6232,55.0,0.0247844,-0.00604913,-13.7161,80.0,0.0229565,-0.00653164,-15.8823,120.0,0.0205583,-0.00674939,-18.1753,180.0,0.0180205,-0.00642424,-19.621,270.0,0.0154788,-0.00508403,-18.1828,405.0,0.0136337,-0.00301603,-12.474,605.0,0.0126565,-0.000365352,-1.65349,900.0,0.0126004,0.00244413,10.9775,1340.0,0.0132301,0.00530895,21.8645,2000.0
55.5251,3,3.8317,2.899,,0,,1.49444,26.19,0.00871772,0.34241,0.0,1.0,0.0315027,-0.00121084,-2.20115,5.0,0.0309184,-0.00306799,-5.66683,10.0,0.0300334,-0.00356292,-6.7655,15.0,0.0291808,-0.00354835,-6.93307,20.0,0.0287025,-0.00424974,-8.42212,25.0,0.0276754,-0.00464466,-9.52693,35.0,0.0262644,-0.00542329,-11.6669,55.0,0.0246628,-0.00592162,-13.5013,80.0,0.0227975,-0.00648702,-15.8837,120.0,0.0205733,-0.00671068,-18.0655,180.0,0.0179659,-0.006337,-19.429,270.0,0.0154647,-0.00504253,-18.0595,405.0,0.0136121,-0.00299851,-12.4228,605.0,0.0126549,-0.000370624,-1.67755,900.0,0.0125749,0.00244205,10.9901,1340.0,0.0132256,0.00532059,21.9147,2000.0
73.4437,3,3.8428,2.899,,0,,1.50889,26.34,0.00861135,0.345517,0.0,1.0,0.0312588,-0.0018895,-3.45915,5.0,0.0300643,-0.00277052,-5.26513,10.0,0.0295983,-0.00315492,-6.08426,15.0,0.0291842,-0.0037812,-7.3823,20.0,0.0286426,-0.00428813,-8.5146,25.0,0.0275382,-0.00446568,-9.21109,35.0,0.0261684,-0.00532509,-11.5022,55.0,0.0246888,-0.00596152,-13.5752,80.0,0.022735,-0.00643394,-15.8013,120.0,0.0205223,-0.00664852,-17.9506,180.0,0.0179282,-0.00631072,-19.3921,270.0,0.0154712,-0.00505747,-18.1023,405.0,0.0136206,-0.0029886,-12.3756,605.0,0.0126594,-0.000389753,-1.76344,900.0,0.0125772,0.00244736,11.0114,1340.0,0.0132128,0.00531763,21.9229,2000.0
91.3952,3,3.8532,2.899,,0,,1.52333,26.51,0.00847098,0.339303,0.0,1.0,0.0311562,-0.00158785,-2.91751,5.0,0.0302891,-0.00253304,-4.78044,10.0,0.0295094,-0.00314235,-6.07831,15.0,0.0290934,-0.0035894,-7.03334,20.0,0.0283519,-0.00391264,-7.85735,25.0,0.0273504,-0.00451507,-9.37398,35.0,0.0260107,-0.0052721,-11.458,55.0,0.0246003,-0.00583827,-13.3507,80.0,0.0227648,-0.0063492,-15.584,120.0,0.0204926,-0.00661347,-17.8862,180.0,0.0179092,-0.00626619,-19.2843,270.0,0.015443,-0.00499008,-17.9072,405.0,0.0136244,-0.0029477,-12.208,605.0,0.0126405,-0.000351393,-1.59236,900.0,0.0125479,0.0024528,11.0605,1340.0,0.0131872,0.00532226,21.9786,2000.0
109.431,3,3.8629,2.899,,0,,1.53778,26.66,0.00852155,0.34241,0.0,1.0,0.0308259,-0.00159082,-2.95422,5.0,0.0300732,-0.00231051,-4.39338,10.0,0.029227,-0.00311292,-6.07956,15.0,0.028819,-0.00347445,-6.87447,20.0,0.0284213,-0.00413497,-8.27781,25.0,0.0273724,-0.00448513,-9.30557,35.0,0.0259091,-0.00525691,-11.4695,55.0,0.0244657,-0.00577745,-13.2867,80.0,0.0226955,-0.00631727,-15.5545,120.0,0.0204409,-0.00654256,-17.7484,180.0,0.0178889,-0.00619546,-19.1025,270.0,0.0153992,-0.00499301,-17.9646,405.0,0.0136011,-0.00294096,-12.2012,605.0,0.0126235,-0.000347661,-1.57757,900.0,0.0125451,0.00245526,11.0737,1340.0,0.0131867,0.00534293,22.0566,2000.0
127.514,3,3.8729,2.899,,0,,1.55222,26.81,0.00844483,0.348935,0.0,1.0,0.0303408,-0.0016386,-3.09135,5.0,0.0293695,-0.00274631,-5.34213,10.0,0.0292692,-0.00324747,-6.33119,15.0,0.0285006,-0.00324879,-6.50308,20.0,0.0279493,-0.00363148,-7.40303,25.0,0.0270261,-0.00420744,-8.84882,35.0,0.0260175,-0.00511223,-11.1165,55.0,0.0243073,-0.0056784,-13.149,80.0,0.0225917,-0.0062384,-15.4368,120.0,0.0203973,-0.00647439,-17.6102,180.0,0.0178671,-0.00618025,-19.0805,270.0,0.0154031,-0.00494471,-17.7977,405.0,0.0135762,-0.00292076,-12.1414,605.0,0.0126021,-0.00034268,-1.55762,900.0,0.0125443,0.00247493,11.1608,1340.0,0.0131789,0.00531894,21.9787,2000.0
145.505,3,3.8825,2.899,,0,,1.56694,26.94,0.00850412,0.345828,0.0,1.0,0.0301891,-0.00169794,-3.21913,5.0,0.0297138,-0.00235064,-4.52321,10.0,0.0287833,-0.00291549,-5.78381,15.0,0.0284298,-0.00350289,-7.02412,20.0,0.0278925,-0.00348242,-7.11663,25.0,0.026986,-0.0042951,-9.04337,35.0,0.0257735,-0.00498804,-10.9533,55.0,0.0243354,-0.00566401,-13.1022,80.0,0.0225428,-0.00615812,-15.279,120.0,0.0203169,-0.0063912,-17.4623,180.0,0.017862,-0.00612717,-18.9334,270.0,0.0154211,-0.00493291,-17.7384,405.0,0.0135596,-0.0028747,-11.9698,605.0,0.0126244,-0.000327641,-1.48667,900.0,0.012522,0.00248231,11.2127,1340.0,0.0131614,0.00534465,22.1014,2000.0
163.533,3,3.8917,2.9,,0,,1.58139,27.06,0.00846314,0.347381,0.0,1.0,0.0297792,-0.00194397,-3.73492,5.0,0.0291508,-0.00214298,-4.20446,10.0,0.0287642,-0.00308208,-6.1159,15.0,0.0283468,-0.00324781,-6.53612,20.0,0.0277268,-0.00347249,-7.13853,25.0,0.0269713,-0.0040741,-8.58978,35.0,0.0255488,-0.00487897,-10.8114,55.0,0.0242259,-0.00546011,-12.7013,80.0,0.0225468,-0.00604161,-15.0005,120.0,0.0203232,-0.00634381,-17.3355,180.0,0.0178359,-0.00605324,-18.7465,270.0,0.0153916,-0.00489395,-17.6387,405.0,0.0135493,-0.00285191,-11.8863,605.0,0.012578,-0.000317449,-1.44575,900.0,0.0125108,0.00249618,11.2836,1340.0,0.0131493,0.00535885,22.1727,2000.0
181.569,3,3.7724,-0.965,,0,,1.59472,27.17,0.0111799,0.34241,0.0,1.0,0.0297461,-0.00209803,-4.03447,5.0,0.0289626,-0.00216212,-4.26932,10.0,0.0283997,-0.00288164,-5.7938,15.0,0.0283849,-0.00328762,-6.60672,20.0,0.027523,-0.00367149,-7.59825,25.0,0.0266814,-0.00426499,-9.08182,35.0,0.025564,-0.00487312,-10.7925,55.0,0.0241491,-0.00538398,-12.5684,80.0,0.0224061,-0.00590567,-14.7659,120.0,0.0202253,-0.00628545,-17.2638,180.0,0.017822,-0.00602982,-18.6925,270.0,0.0153891,-0.00485501,-17.5097,405.0,0.0135852,-0.00282846,-11.7611,605.0,0.0125747,-0.000287769,-1.31098,900.0,0.0125071,0.0025095,11.3455,1340.0,0.01315,0.00534748,22.1292,2000.0

File: EIS_Batteryname_0.0_Temperature_0.0°C_2.0C_precharge_0.0%25SOC_1.csv
Time [s],Channel,Voltage [V],Current [A],Ah-Step [Ah],Ah-Step Counter [Ah],SOC [%],Ah-Step BaSyTec [Ah],Temperature [Â°C],BatteryVoltagePeakPeak,BatteryCurrentPeakPeak,Capacity [mAh],C-Rate,ReZf_5.0Hz,lmZf_5.0Hz,PhaseZ_5.0Hz,Frequency_5.0Hz,ReZf_10.0Hz,lmZf_10.0Hz,PhaseZ_10.0Hz,Frequency_10.0Hz,ReZf_15.0Hz,lmZf_15.0Hz,PhaseZ_15.0Hz,Frequency_15.0Hz,ReZf_20.0Hz,lmZf_20.0Hz,PhaseZ_20.0Hz,Frequency_20.0Hz,ReZf_25.0Hz,lmZf_25.0Hz,PhaseZ_25.0Hz,Frequency_25.0Hz,ReZf_35.0Hz,lmZf_35.0Hz,PhaseZ_35.0Hz,Frequency_35.0Hz,ReZf_55.0Hz,lmZf_55.0Hz,PhaseZ_55.0Hz,Frequency_55.0Hz,ReZf_80.0Hz,lmZf_80.0Hz,PhaseZ_80.0Hz,Frequency_80.0Hz,ReZf_120.0Hz,lmZf_120.0Hz,PhaseZ_120.0Hz,Frequency_120.0Hz,ReZf_180.0Hz,lmZf_180.0Hz,PhaseZ_180.0Hz,Frequency_180.0Hz,ReZf_270.0Hz,lmZf_270.0Hz,PhaseZ_270.0Hz,Frequency_270.0Hz,ReZf_405.0Hz,lmZf_405.0Hz,PhaseZ_405.0Hz,Frequency_405.0Hz,ReZf_605.0Hz,lmZf_605.0Hz,PhaseZ_605.0Hz,Frequency_605.0Hz,ReZf_900.0Hz,lmZf_900.0Hz,PhaseZ_900.0Hz,Frequency_900.0Hz,ReZf_1340.0Hz,lmZf_1340.0Hz,PhaseZ_1340.0Hz,Frequency_1340.0Hz,ReZf_2000.0Hz,lmZf_2000.0Hz,PhaseZ_2000.0Hz,Frequency_2000.0Hz
10.853,3,3.9134,5.799,,0,,1.46667,25.97,0.00926873,0.348003,0.0,2.0,0.0313796,-0.00101564,-1.8538,5.0,0.0305994,-0.00226391,-4.23135,10.0,0.0300112,-0.00315131,-5.99434,15.0,0.0293289,-0.00346027,-6.72874,20.0,0.0287276,-0.00398564,-7.89874,25.0,0.0276536,-0.00468239,-9.61035,35.0,0.0261697,-0.00537194,-11.6001,55.0,0.0247809,-0.00593871,-13.4767,80.0,0.0227273,-0.00647878,-15.911,120.0,0.0205034,-0.00669481,-18.083,180.0,0.0180033,-0.00631494,-19.3291,270.0,0.0155055,-0.00506192,-18.0798,405.0,0.0136258,-0.00298833,-12.3699,605.0,0.0126617,-0.000388274,-1.75643,900.0,0.012606,0.00241355,10.8387,1340.0,0.0132137,0.00529725,21.8455,2000.0
19.433,3,3.9342,5.799,,0,,1.48083,26.14,0.00929402,0.344895,0.0,2.0,0.0311272,-0.00196095,-3.60475,5.0,0.0300977,-0.00280261,-5.31986,10.0,0.0298384,-0.0032463,-6.20912,15.0,0.0289889,-0.00353654,-6.9555,20.0,0.0284871,-0.00409792,-8.18595,25.0,0.0273895,-0.00437862,-9.08273,35.0,0.0262659,-0.00522328,-11.2472,55.0,0.0246306,-0.00584555,-13.3509,80.0,0.0227557,-0.00633066,-15.5466,120.0,0.0204943,-0.00659188,-17.8301,180.0,0.0179721,-0.00626555,-19.2199,270.0,0.0154929,-0.00504778,-18.0463,405.0,0.0136307,-0.0029441,-12.1881,605.0,0.0126608,-0.000384056,-1.73749,900.0,0.0125805,0.00241947,10.8861,1340.0,0.0132094,0.00530539,21.8822,2000.0
28.4175,3,3.9516,5.799,,0,,1.495,26.35,0.00844047,0.337438,0.0,2.0,0.0310483,-0.0020158,-3.71469,5.0,0.0299252,-0.00256857,-4.90584,10.0,0.0292598,-0.00317744,-6.19769,15.0,0.0288732,-0.0035443,-6.99828,20.0,0.0281001,-0.0041412,-8.3835,25.0,0.0271758,-0.00437008,-9.1354,35.0,0.0259234,-0.005084,-11.0958,55.0,0.024542,-0.00568996,-13.0532,80.0,0.0226648,-0.00637095,-15.7004,120.0,0.0204998,-0.00663881,-17.9444,180.0,0.0179026,-0.00627182,-19.3069,270.0,0.0154603,-0.00500305,-17.9319,405.0,0.0136143,-0.00293576,-12.1689,605.0,0.0126508,-0.000363493,-1.64581,900.0,0.0125712,0.0024429,10.997,1340.0,0.0131971,0.00530047,21.8823,2000.0
37.4518,3,3.9668,5.799,,0,,1.50972,26.59,0.00840472,0.342099,0.0,2.0,0.0307608,-0.00226087,-4.20359,5.0,0.0298079,-0.00262958,-5.04144,10.0,0.0287214,-0.00300692,-5.97668,15.0,0.0285577,-0.00359362,-7.17224,20.0,0.0280486,-0.00386923,-7.85421,25.0,0.0271741,-0.00436473,-9.12497,35.0,0.0258981,-0.00512239,-11.1881,55.0,0.0244487,-0.00567487,-13.0677,80.0,0.0226514,-0.00616296,-15.2205,120.0,0.020415,-0.00649933,-17.6594,180.0,0.0178811,-0.00616675,-19.028,270.0,0.0154464,-0.00495911,-17.7994,405.0,0.0135822,-0.0029034,-12.0662,605.0,0.0126357,-0.000357963,-1.62273,900.0,0.0125451,0.00244944,11.0481,1340.0,0.0131776,0.0053164,21.9713,2000.0
46.4755,3,3.9799,5.799,,0,,1.52444,26.87,0.00839339,0.344585,0.0,2.0,0.0305864,-0.00171746,-3.21386,5.0,0.0295444,-0.00210618,-4.07765,10.0,0.0288013,-0.00280616,-5.56485,15.0,0.0282709,-0.0034911,-7.03967,20.0,0.027559,-0.00365265,-7.54993,25.0,0.0271202,-0.00435542,-9.12362,35.0,0.0258021,-0.0049843,-10.9334,55.0,0.0243749,-0.00554734,-12.8212,80.0,0.0225235,-0.00611211,-15.1825,120.0,0.0203156,-0.00638054,-17.436,180.0,0.0178172,-0.00612146,-18.9612,270.0,0.0154208,-0.00490158,-17.6331,405.0,0.0135815,-0.00288833,-12.006,605.0,0.0126228,-0.000318915,-1.44728,900.0,0.012526,0.00248026,11.2002,1340.0,0.013157,0.00532709,22.0423,2000.0
55.5019,3,3.9921,5.799,,0,,1.53889,27.1,0.00862705,0.341478,0.0,2.0,0.0304337,-0.00150517,-2.8314,5.0,0.0295643,-0.00234731,-4.53957,10.0,0.0287516,-0.00299425,-5.94546,15.0,0.0279792,-0.00340085,-6.93026,20.0,0.0278387,-0.00361356,-7.39584,25.0,0.0268218,-0.00417874,-8.85528,35.0,0.0255642,-0.00492712,-10.9092,55.0,0.0241383,-0.00544824,-12.7191,80.0,0.02243,-0.00601126,-15.0028,120.0,0.020252,-0.00635336,-17.4174,180.0,0.0178051,-0.0060476,-18.7604,270.0,0.0153762,-0.00486754,-17.5659,405.0,0.0135883,-0.0028515,-11.8515,605.0,0.0125946,-0.000322182,-1.46536,900.0,0.0125111,0.00248396,11.2295,1340.0,0.0131507,0.00534488,22.1184,2000.0
64.5241,3,4.0034,5.799,,0,,1.55361,27.35,0.00818153,0.341478,0.0,2.0,0.029118,-0.00162512,-3.19445,5.0,0.0292499,-0.00207177,-4.05149,10.0,0.0284572,-0.00273326,-5.48632,15.0,0.0280312,-0.00334684,-6.80869,20.0,0.0275767,-0.00353087,-7.29635,25.0,0.0265804,-0.00379941,-8.13478,35.0,0.0254809,-0.00476063,-10.5826,55.0,0.0241346,-0.00533075,-12.4553,80.0,0.0223539,-0.00591566,-14.8228,120.0,0.0202139,-0.00622977,-17.1289,180.0,0.0178345,-0.00598819,-18.5602,270.0,0.0153672,-0.00484586,-17.502,405.0,0.0135528,-0.00283825,-11.828,605.0,0.0125735,-0.000287696,-1.31077,900.0,0.0124941,0.0025003,11.3165,1340.0,0.0131182,0.00536245,22.2338,2000.0
73.5546,3,4.0128,5.799,,0,,1.56778,27.6,0.00827482,0.343342,0.0,2.0,0.0290237,-0.00173664,-3.42423,5.0,0.0287196,-0.00193228,-3.8491,10.0,0.0285521,-0.00270682,-5.41562,15.0,0.0276375,-0.0029944,-6.18362,20.0,0.0271704,-0.00319365,-6.70387,25.0,0.0264332,-0.00409465,-8.80546,35.0,0.025131,-0.0046419,-10.4651,55.0,0.0238948,-0.00533288,-12.5812,80.0,0.0222874,-0.00584152,-14.6868,120.0,0.0201678,-0.00613989,-16.9324,180.0,0.0177366,-0.0059268,-18.4774,270.0,0.0153363,-0.00477887,-17.3073,405.0,0.0135454,-0.00280937,-11.7172,605.0,0.0125543,-0.000287539,-1.31205,900.0,0.0124675,0.0025116,11.3899,1340.0,0.013111,0.00534791,22.1902,2000.0
82.5659,3,4.0222,5.799,,0,,1.5825,27.84,0.00815886,0.344895,0.0,2.0,0.0284884,-0.0017475,-3.51017,5.0,0.0282656,-0.00249549,-5.04541,10.0,0.027597,-0.00279692,-5.78709,15.0,0.0274651,-0.00308421,-6.40721,20.0,0.026918,-0.00321611,-6.81328,25.0,0.0261381,-0.00371879,-8.09741,35.0,0.0251288,-0.0046732,-10.5349,55.0,0.0237876,-0.00517213,-12.2669,80.0,0.022174,-0.00569878,-14.4133,120.0,0.020129,-0.00606498,-16.7678,180.0,0.0177255,-0.00586528,-18.3091,270.0,0.0153423,-0.00472197,-17.107,405.0,0.0135214,-0.00277112,-11.582,605.0,0.0125465,-0.000250847,-1.14539,900.0,0.0124601,0.00250713,11.3767,1340.0,0.0130827,0.00536388,22.2936,2000.0
91.5102,3,3.8098,-0.965,,0,,1.59472,28.1,0.0135836,0.34707,0.0,2.0,0.0285611,-0.00129214,-2.59038,5.0,0.0282337,-0.00192949,-3.9095,10.0,0.0277497,-0.00229684,-4.73158,15.0,0.0273608,-0.00280982,-5.86344,20.0,0.0268948,-0.00319232,-6.76914,25.0,0.0262618,-0.003846,-8.33165,35.0,0.0249914,-0.00449027,-10.1858,55.0,0.0236925,-0.0051282,-12.2132,80.0,0.0220759,-0.00568328,-14.4369,120.0,0.0201236,-0.00596332,-16.5064,180.0,0.0177021,-0.00583034,-18.2297,270.0,0.0153519,-0.00470661,-17.0446,405.0,0.0135057,-0.00276633,-11.5756,605.0,0.012558,-0.000240082,-1.09524,900.0,0.012453,0.0025339,11.5014,1340.0,0.0130927,0.00537485,22.3193,2000.0

File: EIS_Batteryname_0.0_Temperature_0.0°C_3.0C_precharge_0.0%25SOC_1.csv
Time [s],Channel,Voltage [V],Current [A],Ah-Step [Ah],Ah-Step Counter [Ah],SOC [%],Ah-Step BaSyTec [Ah],Temperature [Â°C],BatteryVoltagePeakPeak,BatteryCurrentPeakPeak,Capacity [mAh],C-Rate,ReZf_5.0Hz,lmZf_5.0Hz,PhaseZ_5.0Hz,Frequency_5.0Hz,ReZf_10.0Hz,lmZf_10.0Hz,PhaseZ_10.0Hz,Frequency_10.0Hz,ReZf_15.0Hz,lmZf_15.0Hz,PhaseZ_15.0Hz,Frequency_15.0Hz,ReZf_20.0Hz,lmZf_20.0Hz,PhaseZ_20.0Hz,Frequency_20.0Hz,ReZf_25.0Hz,lmZf_25.0Hz,PhaseZ_25.0Hz,Frequency_25.0Hz,ReZf_35.0Hz,lmZf_35.0Hz,PhaseZ_35.0Hz,Frequency_35.0Hz,ReZf_55.0Hz,lmZf_55.0Hz,PhaseZ_55.0Hz,Frequency_55.0Hz,ReZf_80.0Hz,lmZf_80.0Hz,PhaseZ_80.0Hz,Frequency_80.0Hz,ReZf_120.0Hz,lmZf_120.0Hz,PhaseZ_120.0Hz,Frequency_120.0Hz,ReZf_180.0Hz,lmZf_180.0Hz,PhaseZ_180.0Hz,Frequency_180.0Hz,ReZf_270.0Hz,lmZf_270.0Hz,PhaseZ_270.0Hz,Frequency_270.0Hz,ReZf_405.0Hz,lmZf_405.0Hz,PhaseZ_405.0Hz,Frequency_405.0Hz,ReZf_605.0Hz,lmZf_605.0Hz,PhaseZ_605.0Hz,Frequency_605.0Hz,ReZf_900.0Hz,lmZf_900.0Hz,PhaseZ_900.0Hz,Frequency_900.0Hz,ReZf_1340.0Hz,lmZf_1340.0Hz,PhaseZ_1340.0Hz,Frequency_1340.0Hz,ReZf_2000.0Hz,lmZf_2000.0Hz,PhaseZ_2000.0Hz,Frequency_2000.0Hz
7.79715,3,4.0134,8.699,,0,,1.46833,26.22,0.00989211,0.341167,0.0,3.0,0.031313,-0.00136216,-2.49088,5.0,0.0303633,-0.00237319,-4.46914,10.0,0.0292322,-0.0030917,-6.03735,15.0,0.0284823,-0.00336834,-6.74451,20.0,0.0281338,-0.00392974,-7.95166,25.0,0.0269982,-0.00436829,-9.19078,35.0,0.0259631,-0.00499409,-10.8881,55.0,0.0243788,-0.00567583,-13.106,80.0,0.0226431,-0.0061816,-15.2698,120.0,0.0204554,-0.00652655,-17.6959,180.0,0.0179029,-0.00616322,-18.9964,270.0,0.015482,-0.00495008,-17.7307,405.0,0.0136447,-0.00292364,-12.0939,605.0,0.0126543,-0.00036251,-1.64092,900.0,0.0125937,0.0024527,11.0208,1340.0,0.0132025,0.00529081,21.8381,2000.0
13.3987,3,4.0375,8.699,,0,,1.48194,26.39,0.00928094,0.34676,0.0,3.0,0.031282,-0.00123011,-2.25189,5.0,0.029816,-0.00245093,-4.69925,10.0,0.0290041,-0.00249013,-4.90706,15.0,0.0283222,-0.00355004,-7.14446,20.0,0.0277386,-0.003929,-8.06195,25.0,0.0270732,-0.00419895,-8.81611,35.0,0.0257911,-0.0050078,-10.9883,55.0,0.0244037,-0.00553329,-12.7752,80.0,0.0226508,-0.00608719,-15.0423,120.0,0.0204172,-0.00641786,-17.4498,180.0,0.0179126,-0.00612287,-18.8714,270.0,0.0154707,-0.00495572,-17.7618,405.0,0.0136158,-0.00290081,-12.0269,605.0,0.0126509,-0.000354287,-1.60415,900.0,0.012567,0.0024512,11.037,1340.0,0.0131659,0.00529638,21.9139,2000.0
19.4651,3,4.0581,8.7,,0,,1.49639,26.64,0.0090778,0.347692,0.0,3.0,0.0308328,-0.00178012,-3.30428,5.0,0.0297951,-0.00252282,-4.83982,10.0,0.028943,-0.0030618,-6.0387,15.0,0.028104,-0.00315569,-6.40668,20.0,0.0276657,-0.00362027,-7.45525,25.0,0.027031,-0.00406562,-8.55349,35.0,0.0256363,-0.00496627,-10.9635,55.0,0.0242994,-0.00551248,-12.7816,80.0,0.0225396,-0.00596877,-14.8322,120.0,0.0203905,-0.00638049,-17.3757,180.0,0.0178673,-0.00607083,-18.7664,270.0,0.0154896,-0.00486759,-17.4453,405.0,0.0135696,-0.00290412,-12.08,605.0,0.0126281,-0.000343404,-1.5577,900.0,0.012535,0.00247137,11.1533,1340.0,0.0131525,0.00531563,22.0062,2000.0
25.418,3,4.0759,8.699,,0,,1.51083,26.95,0.00918416,0.348003,0.0,3.0,0.0298413,-0.00194556,-3.73022,5.0,0.0291119,-0.00254267,-4.99163,10.0,0.0287567,-0.00290353,-5.76554,15.0,0.0281641,-0.0033469,-6.77699,20.0,0.0278813,-0.00363672,-7.43147,25.0,0.0266677,-0.00396804,-8.46327,35.0,0.0255073,-0.00475269,-10.5547,55.0,0.024114,-0.00544255,-12.7186,80.0,0.0225194,-0.00592755,-14.7469,120.0,0.0202882,-0.00631445,-17.2881,180.0,0.0178612,-0.00603661,-18.6739,270.0,0.0154077,-0.00486055,-17.5085,405.0,0.0135864,-0.00286406,-11.9039,605.0,0.012617,-0.000328715,-1.4924,900.0,0.0125259,0.00246607,11.1378,1340.0,0.0131349,0.00532408,22.0646,2000.0
31.4336,3,4.0926,8.699,,0,,1.52583,27.29,0.00869331,0.340235,0.0,3.0,0.0298871,-0.0019808,-3.79179,5.0,0.0288238,-0.00175058,-3.47553,10.0,0.0282434,-0.00272777,-5.51655,15.0,0.027919,-0.00318627,-6.51074,20.0,0.0271543,-0.00345193,-7.24473,25.0,0.0264505,-0.00398011,-8.55731,35.0,0.0252708,-0.00472821,-10.5976,55.0,0.0240183,-0.00538832,-12.6445,80.0,0.0223079,-0.00589954,-14.8133,120.0,0.0202216,-0.00622035,-17.0984,180.0,0.0177756,-0.00595812,-18.5304,270.0,0.0153747,-0.00478322,-17.2814,405.0,0.0135617,-0.0028203,-11.7478,605.0,0.0125845,-0.000290523,-1.32248,900.0,0.0125086,0.00248145,11.2206,1340.0,0.0131154,0.00534305,22.1654,2000.0
37.4513,3,4.1072,8.699,,0,,1.54028,27.63,0.00878921,0.34676,0.0,3.0,0.0291764,-0.0012238,-2.40185,5.0,0.0288465,-0.00227882,-4.51688,10.0,0.0280162,-0.00253858,-5.1775,15.0,0.0273882,-0.00306089,-6.3769,20.0,0.0271669,-0.00391382,-8.19795,25.0,0.0264572,-0.00392539,-8.43926,35.0,0.0251508,-0.00462061,-10.4101,55.0,0.0239135,-0.00518709,-12.2385,80.0,0.0222924,-0.00574729,-14.4569,120.0,0.0202127,-0.00611935,-16.8436,180.0,0.0177802,-0.00587614,-18.2881,270.0,0.0153488,-0.00477293,-17.2738,405.0,0.0135531,-0.00281255,-11.7237,605.0,0.0125786,-0.00030136,-1.37243,900.0,0.0124776,0.0025063,11.3575,1340.0,0.0131033,0.00535312,22.2216,2000.0
43.4551,3,4.1204,8.699,,0,,1.55472,27.98,0.00899933,0.341478,0.0,3.0,0.0287432,-0.00207784,-4.13471,5.0,0.0282903,-0.0022755,-4.59863,10.0,0.0275914,-0.00257087,-5.32324,15.0,0.0272028,-0.00324718,-6.80716,20.0,0.0268279,-0.00347248,-7.3751,25.0,0.0259091,-0.00387961,-8.51616,35.0,0.0249731,-0.00443588,-10.0722,55.0,0.0238141,-0.00509888,-12.0852,80.0,0.0221064,-0.00573071,-14.5331,120.0,0.0201143,-0.00605562,-16.755,180.0,0.0176805,-0.00580418,-18.174,270.0,0.0153461,-0.00472133,-17.1009,405.0,0.0135199,-0.00278711,-11.6483,605.0,0.0125483,-0.000260006,-1.18702,900.0,0.0124501,0.0025134,11.4134,1340.0,0.0130919,0.00535727,22.2547,2000.0
49.4286,3,4.1313,8.699,,0,,1.56917,28.31,0.00824169,0.345206,0.0,3.0,0.0279916,-0.00150196,-3.0714,5.0,0.0280802,-0.00242714,-4.94015,10.0,0.0275242,-0.0024745,-5.13723,15.0,0.0269201,-0.00274569,-5.82369,20.0,0.026606,-0.00331755,-7.10762,25.0,0.0257247,-0.00356145,-7.88219,35.0,0.0248673,-0.00430199,-9.81489,55.0,0.023552,-0.00501123,-12.0119,80.0,0.0220485,-0.00561773,-14.2942,120.0,0.0200296,-0.00591533,-16.4534,180.0,0.0176484,-0.00573572,-18.0041,270.0,0.015323,-0.00466289,-16.9253,405.0,0.0134706,-0.00271216,-11.3837,605.0,0.0125246,-0.000238767,-1.09215,900.0,0.012421,0.00253683,11.5432,1340.0,0.0130392,0.00537025,22.3845,2000.0
55.4555,3,4.1404,8.699,,0,,1.58361,28.64,0.00829574,0.345206,0.0,3.0,0.0286096,-0.00107453,-2.15093,5.0,0.0279005,-0.00178496,-3.66055,10.0,0.0270346,-0.0025061,-5.29615,15.0,0.026339,-0.00256465,-5.5614,20.0,0.0263545,-0.00290566,-6.29161,25.0,0.0254385,-0.00360122,-8.05758,35.0,0.0245995,-0.00410908,-9.48309,55.0,0.0232511,-0.00475578,-11.5598,80.0,0.0217672,-0.00544294,-14.0391,120.0,0.0198961,-0.00573511,-16.0798,180.0,0.0175971,-0.00562318,-17.7214,270.0,0.0152485,-0.00457996,-16.7179,405.0,0.0134788,-0.00268386,-11.2613,605.0,0.0124845,-0.000196409,-0.901316,900.0,0.0124005,0.00254105,11.5804,1340.0,0.0130043,0.00538641,22.4994,2000.0
61.4785,3,3.8714,0.0,,0,,1.595,28.97,0.0139009,0.341478,0.0,3.0,0.0273878,-0.0015064,-3.14826,5.0,0.0271315,-0.00151235,-3.19044,10.0,0.0266599,-0.00222603,-4.77297,15.0,0.0261599,-0.00239704,-5.23541,20.0,0.0255496,-0.00297277,-6.63669,25.0,0.0252134,-0.00323807,-7.31824,35.0,0.0243667,-0.00400961,-9.34445,55.0,0.0232495,-0.00467366,-11.3662,80.0,0.021718,-0.00517415,-13.4005,120.0,0.0198454,-0.00564405,-15.8758,180.0,0.0175029,-0.00551213,-17.4806,270.0,0.0152295,-0.00449835,-16.4556,405.0,0.0134501,-0.00263014,-11.0644,605.0,0.012479,-0.000142214,-0.652931,900.0,0.0123734,0.00260081,11.8703,1340.0,0.0129944,0.00542534,22.6612,2000.0