Folder: Batterylab/00_Test_Data (part 3)

File: EIS_Batteryname_0.0_Temperature_0.0°C_4.0C_precharge_0.0%SOC_1.csv
Time [s],Channel,Voltage [V],Current [A],Ah-Step [Ah],Ah-Step Counter [Ah],SOC [%],Ah-Step BaSyTec [Ah],Temperature [Â°C],BatteryVoltagePeakPeak,BatteryCurrentPeakPeak,Capacity [mAh],C-Rate,ReZf_5.0Hz,lmZf_5.0Hz,PhaseZ_5.0Hz,Frequency_5.0Hz,ReZf_10.0Hz,lmZf_10.0Hz,PhaseZ_10.0Hz,Frequency_10.0Hz,ReZf_15.0Hz,lmZf_15.0Hz,PhaseZ_15.0Hz,Frequency_15.0Hz,ReZf_20.0Hz,lmZf_20.0Hz,PhaseZ_20.0Hz,Frequency_20.0Hz,ReZf_25.0Hz,lmZf_25.0Hz,PhaseZ_25.0Hz,Frequency_25.0Hz,ReZf_35.0Hz,lmZf_35.0Hz,PhaseZ_35.0Hz,Frequency_35.0Hz,ReZf_55.0Hz,lmZf_55.0Hz,PhaseZ_55.0Hz,Frequency_55.0Hz,ReZf_80.0Hz,lmZf_80.0Hz,PhaseZ_80.0Hz,Frequency_80.0Hz,ReZf_120.0Hz,lmZf_120.0Hz,PhaseZ_120.0Hz,Frequency_120.0Hz,ReZf_180.0Hz,lmZf_180.0Hz,PhaseZ_180.0Hz,Frequency_180.0Hz,ReZf_270.0Hz,lmZf_270.0Hz,PhaseZ_270.0Hz,Frequency_270.0Hz,ReZf_405.0Hz,lmZf_405.0Hz,PhaseZ_405.0Hz,Frequency_405.0Hz,ReZf_605.0Hz,lmZf_605.0Hz,PhaseZ_605.0Hz,Frequency_605.0Hz,ReZf_900.0Hz,lmZf_900.0Hz,PhaseZ_900.0Hz,Frequency_900.0Hz,ReZf_1340.0Hz,lmZf_1340.0Hz,PhaseZ_1340.0Hz,Frequency_1340.0Hz,ReZf_2000.0Hz,lmZf_2000.0Hz,PhaseZ_2000.0Hz,Frequency_2000.0Hz
77900.6,3,4.0944,10.652,,0,,0.00361111,26.01,0.0088145,0.34676,2700.0,4.0,0.0337119,-0.00246422,-4.18068,5.0,0.0325647,-0.00341345,-5.98391,10.0,0.0316285,-0.00408901,-7.36648,15.0,0.0308103,-0.00456076,-8.42019,20.0,0.030127,-0.00497178,-9.37093,25.0,0.0288912,-0.00547534,-10.7312,35.0,0.0272174,-0.00618208,-12.7969,55.0,0.0254841,-0.00676124,-14.8589,80.0,0.0233086,-0.0072225,-17.2163,120.0,0.0208476,-0.00735502,-19.4328,180.0,0.018079,-0.00688986,-20.8617,270.0,0.0154979,-0.0054388,-19.338,405.0,0.0135865,-0.00323038,-13.3745,605.0,0.0126311,-0.000535918,-2.42951,900.0,0.0125492,0.00234232,10.5727,1340.0,0.0132082,0.00523532,21.6218,2000.0
77918.7,3,4.0944,10.652,,0,,0.00361111,26.01,0.00871336,0.347381,2700.0,4.0,0.0325354,-0.0035413,-6.21189,5.0,0.0325964,-0.00350094,-6.13022,10.0,0.0316023,-0.00410874,-7.40769,15.0,0.030818,-0.00458122,-8.45533,20.0,0.030119,-0.00498086,-9.39016,25.0,0.0289031,-0.00547877,-10.7334,35.0,0.0271707,-0.00618981,-12.8337,55.0,0.0254893,-0.00669145,-14.7094,80.0,0.0233063,-0.00723346,-17.2425,120.0,0.0208547,-0.00735549,-19.4279,180.0,0.0181065,-0.00684768,-20.7161,270.0,0.0154895,-0.00544552,-19.3698,405.0,0.0135928,-0.00322679,-13.3542,605.0,0.0126166,-0.000517459,-2.34863,900.0,0.0125492,0.00234435,10.5816,1340.0,0.0132034,0.00525302,21.6953,2000.0
77936.7,3,4.0944,10.652,,0,,0.00361111,26.01,0.00867936,0.348003,2700.0,4.0,0.033674,-0.00247291,-4.20008,5.0,0.0325089,-0.00341963,-6.00489,10.0,0.0316396,-0.00409615,-7.37663,15.0,0.030804,-0.0045683,-8.43561,20.0,0.0301049,-0.0049701,-9.37457,25.0,0.0289015,-0.00546116,-10.7003,35.0,0.0271809,-0.00620737,-12.8641,55.0,0.0255312,-0.00669554,-14.6948,80.0,0.0233553,-0.00716669,-17.0589,120.0,0.0208716,-0.00735302,-19.4072,180.0,0.0180966,-0.00686723,-20.7805,270.0,0.0154913,-0.00546119,-19.4193,405.0,0.0135972,-0.00322797,-13.3547,605.0,0.0126075,-0.000532833,-2.42005,900.0,0.0125631,0.00234717,10.5826,1340.0,0.0132045,0.005249,21.6786,2000.0
77954.8,3,4.0944,10.652,,0,,0.00361111,26.01,0.00905687,0.350178,2700.0,4.0,0.0335563,-0.00247038,-4.21045,5.0,0.0325335,-0.00339794,-5.9626,10.0,0.031637,-0.00410606,-7.39489,15.0,0.0308313,-0.00459032,-8.46829,20.0,0.0300889,-0.00489896,-9.24753,25.0,0.0289095,-0.00549997,-10.7717,35.0,0.0271733,-0.00619443,-12.8417,55.0,0.0255302,-0.00678357,-14.8801,80.0,0.0234587,-0.00727098,-17.2207,120.0,0.0208796,-0.00737453,-19.4529,180.0,0.0180982,-0.00687253,-20.7936,270.0,0.0154954,-0.00545023,-19.3784,405.0,0.0135888,-0.00321822,-13.3238,605.0,0.0126172,-0.000538913,-2.44576,900.0,0.0125511,0.0023468,10.5909,1340.0,0.0131977,0.00525109,21.6966,2000.0
77972.8,3,4.0944,10.652,,0,,0.00361111,26.01,0.0091615,0.344274,2700.0,4.0,0.0336607,-0.00231494,-3.9342,5.0,0.032572,-0.00341895,-5.99215,10.0,0.031651,-0.00407729,-7.34044,15.0,0.030792,-0.00456795,-8.43821,20.0,0.0300867,-0.00497877,-9.39622,25.0,0.0289369,-0.00547152,-10.7073,35.0,0.0271782,-0.00618225,-12.815,55.0,0.0254951,-0.00665501,-14.6295,80.0,0.023359,-0.00722142,-17.179,120.0,0.0208621,-0.00736373,-19.4416,180.0,0.0180842,-0.00687306,-20.8098,270.0,0.0154916,-0.00544092,-19.3522,405.0,0.0135909,-0.00322376,-13.3439,605.0,0.0126207,-0.00053566,-2.43034,900.0,0.0125483,0.00235279,10.6196,1340.0,0.0132012,0.00524767,21.6785,2000.0
77990.9,3,4.0944,10.652,,0,,0.00361111,26.01,0.00890953,0.345517,2700.0,4.0,0.0337706,-0.00229228,-3.88316,5.0,0.032387,-0.00337641,-5.95168,10.0,0.0316136,-0.00409832,-7.38651,15.0,0.0308555,-0.00457114,-8.4269,20.0,0.0300882,-0.00492156,-9.28965,25.0,0.02891,-0.00549738,-10.7665,35.0,0.0271585,-0.00619439,-12.8484,55.0,0.0255735,-0.00674557,-14.7765,80.0,0.0233504,-0.00717216,-17.0746,120.0,0.020868,-0.007356,-19.4177,180.0,0.0180818,-0.00686342,-20.7856,270.0,0.0154916,-0.00543708,-19.3396,405.0,0.0135877,-0.00323056,-13.3741,605.0,0.012608,-0.000533771,-2.42421,900.0,0.0125479,0.00234883,10.6025,1340.0,0.0132022,0.00524409,21.6636,2000.0
78008.9,3,4.0944,10.652,,0,,0.00361111,26.01,0.00891215,0.345206,2700.0,4.0,0.0336225,-0.00251459,-4.27713,5.0,0.0325422,-0.00342682,-6.01131,10.0,0.0315614,-0.00413561,-7.46516,15.0,0.0307592,-0.00455664,-8.42647,20.0,0.030126,-0.00498512,-9.39591,25.0,0.0289248,-0.0054803,-10.7285,35.0,0.0271636,-0.00617526,-12.8077,55.0,0.0254386,-0.00672239,-14.8026,80.0,0.0234672,-0.00728528,-17.2467,120.0,0.0208618,-0.00737461,-19.4684,180.0,0.0180833,-0.00688501,-20.8438,270.0,0.0154803,-0.00544419,-19.376,405.0,0.0135917,-0.0032276,-13.3585,605.0,0.012602,-0.00053281,-2.421,900.0,0.0125593,0.00235021,10.5991,1340.0,0.0132112,0.00524534,21.6549,2000.0
78026.9,3,4.0944,10.652,,0,,0.00361111,26.01,0.00889819,0.348003,2700.0,4.0,0.0335329,-0.00266408,-4.54243,5.0,0.0326172,-0.00350334,-6.1305,10.0,0.0315806,-0.00407029,-7.34414,15.0,0.0307422,-0.00460599,-8.52103,20.0,0.0300887,-0.00497927,-9.39652,25.0,0.0288859,-0.00547082,-10.7245,35.0,0.0272057,-0.00617859,-12.7952,55.0,0.0255576,-0.0067071,-14.7046,80.0,0.0233604,-0.00717284,-17.0692,120.0,0.0208654,-0.007346,-19.3954,180.0,0.0181074,-0.00685163,-20.7261,270.0,0.0155065,-0.00544447,-19.3466,405.0,0.0135955,-0.00324114,-13.4089,605.0,0.0126123,-0.000532067,-2.41566,900.0,0.0125505,0.00235014,10.6061,1340.0,0.0132032,0.00523587,21.6314,2000.0
78045,3,4.0944,10.652,,0,,0.00361111,26.01,0.0090002,0.348003,2700.0,4.0,0.0336218,-0.00254039,-4.32092,5.0,0.0324513,-0.0033584,-5.90853,10.0,0.0316315,-0.00412905,-7.4371,15.0,0.0307908,-0.00459635,-8.49024,20.0,0.0300876,-0.00494038,-9.32475,25.0,0.0289178,-0.00546334,-10.6986,35.0,0.0271683,-0.00621706,-12.8894,55.0,0.0255248,-0.00669647,-14.7003,80.0,0.0233948,-0.0071466,-16.9868,120.0,0.0208799,-0.00736082,-19.4192,180.0,0.0180924,-0.006883,-20.8286,270.0,0.0154835,-0.00543687,-19.3482,405.0,0.0135847,-0.00321355,-13.309,605.0,0.0126114,-0.000542005,-2.46091,900.0,0.0125587,0.00235667,10.6281,1340.0,0.0132013,0.00524476,21.6676,2000.0
78063,3,4.0944,10.652,,0,,0.00361111,26.01,0.00886506,0.350178,2700.0,4.0,0.033667,-0.00255086,-4.33287,5.0,0.0325243,-0.00350182,-6.14524,10.0,0.0316183,-0.00410233,-7.39257,15.0,0.0308306,-0.00460513,-8.49541,20.0,0.0300772,-0.00494745,-9.34103,25.0,0.0289262,-0.00546773,-10.7039,35.0,0.0271627,-0.00620265,-12.863,55.0,0.0255108,-0.00677814,-14.8795,80.0,0.023376,-0.00714471,-16.9954,120.0,0.0208544,-0.00738018,-19.4884,180.0,0.0180937,-0.00688011,-20.8192,270.0,0.0155039,-0.00543597,-19.3216,405.0,0.0135931,-0.00323006,-13.367,605.0,0.012611,-0.000534517,-2.42703,900.0,0.0125583,0.00235934,10.6402,1340.0,0.0132086,0.00524122,21.6434,2000.0
78081,3,4.0944,10.652,,0,,0.00361111,26.01,0.00894789,0.348313,2700.0,4.0,0.0335392,-0.00253635,-4.32467,5.0,0.0324756,-0.00339319,-5.96486,10.0,0.0316441,-0.00411433,-7.40798,15.0,0.0308239,-0.00461005,-8.50615,20.0,0.0300929,-0.00495508,-9.3504,25.0,0.0289266,-0.00549524,-10.7564,35.0,0.0271801,-0.00617193,-12.7935,55.0,0.0254846,-0.00677151,-14.8802,80.0,0.0234106,-0.00718215,-17.0555,120.0,0.0208274,-0.00733912,-19.4113,180.0,0.0180888,-0.00686944,-20.7949,270.0,0.0154776,-0.00544051,-19.367,405.0,0.0135848,-0.00323736,-13.404,605.0,0.0126154,-0.000526846,-2.39141,900.0,0.0125517,0.00236349,10.664,1340.0,0.0132066,0.00524267,21.6517,2000.0
78099.1,3,4.0944,10.652,,0,,0.00361111,26.01,0.00895574,0.348003,2700.0,4.0,0.0335783,-0.00252482,-4.30009,5.0,0.0325219,-0.0033725,-5.92038,10.0,0.0316315,-0.0041157,-7.41332,15.0,0.0307499,-0.00457239,-8.45769,20.0,0.0300881,-0.00497283,-9.38476,25.0,0.0288701,-0.00550276,-10.7914,35.0,0.0271464,-0.00616079,-12.7865,55.0,0.0254524,-0.00677921,-14.9144,80.0,0.0234414,-0.00723156,-17.1447,120.0,0.020883,-0.00736359,-19.4233,180.0,0.018091,-0.0068871,-20.8414,270.0,0.0154942,-0.00545672,-19.4011,405.0,0.0135939,-0.00323406,-13.3822,605.0,0.0126142,-0.000522831,-2.37343,900.0,0.0125472,0.00235191,10.6167,1340.0,0.0132094,0.00525653,21.6995,2000.0
78117.1,3,4.0944,10.652,,0,,0.00361111,26.01,0.00884414,0.349245,2700.0,4.0,0.0336879,-0.0024698,-4.1931,5.0,0.0326329,-0.00338827,-5.92776,10.0,0.031624,-0.0041444,-7.46619,15.0,0.0308181,-0.00456909,-8.43323,20.0,0.0300897,-0.00493792,-9.31954,25.0,0.0289036,-0.0055009,-10.7756,35.0,0.0271651,-0.00618049,-12.8175,55.0,0.0255335,-0.00667073,-14.6415,80.0,0.0233177,-0.00720639,-17.1739,120.0,0.0208561,-0.00736303,-19.445,180.0,0.0180925,-0.00687429,-20.8045,270.0,0.0154989,-0.00545553,-19.3918,405.0,0.0135927,-0.00323169,-13.3739,605.0,0.012613,-0.00052946,-2.40371,900.0,0.0125403,0.0023664,10.6863,1340.0,0.0132117,0.00523656,21.6212,2000.0
78126.1,3,3.6893,0.0,,0,,0.0,25.57,0.00910919,0.350488,2900.0,0.0,0.0336482,-0.00251805,-4.27974,5.0,0.0324802,-0.00348663,-6.12703,10.0,0.0316562,-0.00413196,-7.43653,15.0,0.0308244,-0.00458532,-8.46104,20.0,0.0300903,-0.0049608,-9.36179,25.0,0.0289274,-0.00550946,-10.7833,35.0,0.0271653,-0.00619534,-12.8472,55.0,0.0255363,-0.00676265,-14.8329,80.0,0.0234629,-0.00718552,-17.0272,120.0,0.0208356,-0.00733422,-19.3923,180.0,0.0180843,-0.00689428,-20.8684,270.0,0.015497,-0.0054497,-19.3748,405.0,0.0135949,-0.0032265,-13.3511,605.0,0.0126172,-0.000532173,-2.41521,900.0,0.0125484,0.00234998,10.6071,1340.0,0.0132199,0.00523731,21.612,2000.0