Folder: Batterylab/00_Test_Data

Note: README.md
# ğŸ”‹ Analyse- und Visualisierungsanwendung fÃ¼r Zellmessdaten

Diese Anwendung wurde mit [Streamlit](https://streamlit.io) entwickelt und dient zur **Analyse, Verarbeitung und Visualisierung von Messdaten** aus Zellversuchen.  
Sie ermÃ¶glicht die interaktive Auswertung von Parametern, Zellen und Messwerten sowie die Ã¼bersichtliche Darstellung von Kennwerten in Tabellen und Diagrammen.

---

## ğŸš€ Funktionen

- **Datenimport:** CSV- oder mpr-Dateien kÃ¶nnen direkt in der Anwendung geladen werden.  
- **Filterung:** Parameter (z. B. Zyklus, Zelle, Ladezustand) kÃ¶nnen gezielt ein- oder ausgeschlossen werden.  
- **Berechnung:** Kennwerte wie Mittelwerte, Differenzen oder normierte Kurven werden automatisch berechnet.  
- **Visualisierung:** Interaktive Diagramme fÃ¼r ZellverlÃ¤ufe, Trends und Vergleichsdaten.  
- **Export:** Ergebnisse lassen sich als CSV-Datei speichern.  

---

## ğŸ§© Voraussetzungen

- Python 3.10 oder neuer  
- Internetbrowser (z. B. Chrome, Firefox, Edge)  
- Empfohlene BildschirmauflÃ¶sung: 1920Ã—1080  

---

## âš™ï¸ Installation

1. Repository klonen:
   ```bash
   git clone https://github.com/janostoldy/Batterylab
   cd Batterylab
   ```

2. Virtuelle Umgebung erstellen und aktivieren:
   ```bash
   python -m venv .venv
   source .venv/bin/activate   # macOS/Linux
   .venv\Scripts\activate      # Windows
   ```

3. AbhÃ¤ngigkeiten installieren:
   ```bash
   pip install -r requirements.txt
   ```

---

## â–¶ï¸ Anwendung starten

```bash
streamlit run app.py
```

AnschlieÃŸend Ã¶ffnet sich automatisch der Browser unter  
ğŸ‘‰ **http://localhost:8501**

---

## ğŸ“‚ Projektstruktur

```
â”œâ”€â”€ app.py                # Hauptdatei der Streamlit-Anwendung
â”œâ”€â”€ app_pages/            # Unterseiten der Streamlit-Anwendung
â”œâ”€â”€ classes/              
    â”œâ”€â”€ datenanalyse.py   # Auswertung der Ergebnisse
    â””â”€â”€ datenbank.py      # Komunikation mit Datenbank
â”œâ”€â”€ src/                  # Hilfsfunktionen zur Filterung oder Auswertung
â”œâ”€â”€ requirements.txt      # Liste der Python-AbhÃ¤ngigkeiten
â””â”€â”€ README.md             # Projektdokumentation
```

---

## ğŸ§  Beispielnutzung

1. Datei im Bereich **â€Daten hinzufÃ¼genâ€œ** auswÃ¤hlen
2. Im Bereich **â€EISâ€œ** wechseln 
3. Parameter auswÃ¤hlen oder filtern 
4. Ergebnisse werden automatisch berechnet und angezeigt
5. Interaktive Diagramme ermÃ¶glichen Detailanalysen
6. Export der ergebnisse als ```.csv```-Datei

---

## ğŸ§ª Verwendete Bibliotheken

- [Streamlit](https://streamlit.io/) â€“ WeboberflÃ¤che  
- [pandas](https://pandas.pydata.org/) â€“ Datenverarbeitung  
- [numpy](https://numpy.org/) â€“ numerische Berechnungen  
- [plotly](https://plotly.com/python/) â€“ Diagramme  
- [scipy](https://scipy.org) - Datenauswertung
- [galvani](https://github.com/echemdata/galvani) - Import von ```.mpr```-Datein

---

## ğŸ§¾ Lizenz


---

## ğŸ‘¤ Autor

Entwickelt von **<DEIN NAME>**  
Maschinenbau â€“ Technische UniversitÃ¤t MÃ¼nchen  
ğŸ“ MÃ

File: EIS_Batteryname_0.0_Temperature_0.0°C_0.5C_precharge_0.0%25SOC_1.csv
Time [s],Channel,Voltage [V],Current [A],Ah-Step [Ah],Ah-Step Counter [Ah],SOC [%],Ah-Step BaSyTec [Ah],Temperature [Â°C],BatteryVoltagePeakPeak,BatteryCurrentPeakPeak,Capacity [mAh],C-Rate,ReZf_5.0Hz,lmZf_5.0Hz,PhaseZ_5.0Hz,Frequency_5.0Hz,ReZf_10.0Hz,lmZf_10.0Hz,PhaseZ_10.0Hz,Frequency_10.0Hz,ReZf_15.0Hz,lmZf_15.0Hz,PhaseZ_15.0Hz,Frequency_15.0Hz,ReZf_20.0Hz,lmZf_20.0Hz,PhaseZ_20.0Hz,Frequency_20.0Hz,ReZf_25.0Hz,lmZf_25.0Hz,PhaseZ_25.0Hz,Frequency_25.0Hz,ReZf_35.0Hz,lmZf_35.0Hz,PhaseZ_35.0Hz,Frequency_35.0Hz,ReZf_55.0Hz,lmZf_55.0Hz,PhaseZ_55.0Hz,Frequency_55.0Hz,ReZf_80.0Hz,lmZf_80.0Hz,PhaseZ_80.0Hz,Frequency_80.0Hz,ReZf_120.0Hz,lmZf_120.0Hz,PhaseZ_120.0Hz,Frequency_120.0Hz,ReZf_180.0Hz,lmZf_180.0Hz,PhaseZ_180.0Hz,Frequency_180.0Hz,ReZf_270.0Hz,lmZf_270.0Hz,PhaseZ_270.0Hz,Frequency_270.0Hz,ReZf_405.0Hz,lmZf_405.0Hz,PhaseZ_405.0Hz,Frequency_405.0Hz,ReZf_605.0Hz,lmZf_605.0Hz,PhaseZ_605.0Hz,Frequency_605.0Hz,ReZf_900.0Hz,lmZf_900.0Hz,PhaseZ_900.0Hz,Frequency_900.0Hz,ReZf_1340.0Hz,lmZf_1340.0Hz,PhaseZ_1340.0Hz,Frequency_1340.0Hz,ReZf_2000.0Hz,lmZf_2000.0Hz,PhaseZ_2000.0Hz,Frequency_2000.0Hz
37.7767,3,3.748,1.449,,0,,1.46528,25.82,0.00856166,0.345206,0.0,0.5,0.0320502,-0.00204364,-3.64846,5.0,0.0313149,-0.00293238,-5.34968,10.0,0.0304808,-0.0033755,-6.31929,15.0,0.0299412,-0.00396317,-7.54012,20.0,0.0291447,-0.00439571,-8.5769,25.0,0.0279463,-0.00477158,-9.68933,35.0,0.0265553,-0.00549247,-11.6858,55.0,0.0249405,-0.00617633,-13.9091,80.0,0.0230155,-0.00663295,-16.0767,120.0,0.0206653,-0.00687755,-18.4078,180.0,0.018038,-0.00649822,-19.8117,270.0,0.0155534,-0.00515326,-18.3315,405.0,0.0136704,-0.00304388,-12.5528,605.0,0.0126749,-0.00041939,-1.89512,900.0,0.0126054,0.00242411,10.8855,1340.0,0.0132645,0.00529809,21.7727,2000.0
73.4077,3,3.7597,1.449,,0,,1.47944,25.92,0.00857648,0.339613,0.0,0.5,0.0315899,-0.002309,-4.18049,5.0,0.0308569,-0.00286616,-5.30672,10.0,0.030153,-0.00356295,-6.73896,15.0,0.0297477,-0.00407123,-7.79301,20.0,0.0289603,-0.00428312,-8.41283,25.0,0.0280957,-0.00498407,-10.0594,35.0,0.0263571,-0.0055305,-11.8504,55.0,0.0248853,-0.00609063,-13.7527,80.0,0.0229328,-0.00658436,-16.0196,120.0,0.0206055,-0.00679558,-18.2523,180.0,0.0179966,-0.00644722,-19.7098,270.0,0.0155053,-0.00512601,-18.2938,405.0,0.0136488,-0.00302811,-12.5089,605.0,0.0126698,-0.000412494,-1.86474,900.0,0.0126147,0.00240448,10.7917,1340.0,0.013261,0.00529534,21.7677,2000.0
109.418,3,3.7686,1.449,,0,,1.49389,26.01,0.00843524,0.341167,0.0,0.5,0.0315883,-0.00202785,-3.67314,5.0,0.0307166,-0.0026614,-4.95195,10.0,0.0303072,-0.00355066,-6.68207,15.0,0.0295136,-0.00396086,-7.64368,20.0,0.0288032,-0.00435395,-8.59587,25.0,0.027876,-0.00476405,-9.69823,35.0,0.0263068,-0.00563464,-12.0895,55.0,0.0248242,-0.00613804,-13.8884,80.0,0.0228999,-0.00662428,-16.1336,120.0,0.0206168,-0.00675997,-18.1536,180.0,0.0179983,-0.0064256,-19.6472,270.0,0.0154973,-0.00512137,-18.2871,405.0,0.0136392,-0.00304084,-12.5685,605.0,0.0126807,-0.000406235,-1.83488,900.0,0.0125935,0.00242323,10.8917,1340.0,0.0132491,0.00530241,21.8117,2000.0
145.408,3,3.7772,1.449,,0,,1.50833,26.1,0.00822861,0.348313,0.0,0.5,0.0315699,-0.0017347,-3.14513,5.0,0.0308465,-0.00240935,-4.46619,10.0,0.0299814,-0.00317606,-6.04703,15.0,0.0293275,-0.00390822,-7.59058,20.0,0.0287144,-0.00423458,-8.38908,25.0,0.0277721,-0.0047713,-9.74836,35.0,0.02634,-0.0055092,-11.8135,55.0,0.0247341,-0.00608845,-13.8288,80.0,0.0228694,-0.00653793,-15.9542,120.0,0.0205833,-0.00673831,-18.1268,180.0,0.0179762,-0.00641548,-19.6409,270.0,0.015482,-0.00513008,-18.333,405.0,0.0136392,-0.00300355,-12.4191,605.0,0.0126684,-0.00040358,-1.82467,900.0,0.0125958,0.00244588,10.9891,1340.0,0.0132281,0.00530997,21.8713,2000.0
181.437,3,3.7855,1.449,,0,,1.52278,26.2,0.00849627,0.344585,0.0,0.5,0.0321409,-0.00196992,-3.50728,5.0,0.0309043,-0.00254076,-4.69994,10.0,0.0303284,-0.00331443,-6.2368,15.0,0.0291592,-0.00389684,-7.61191,20.0,0.0287378,-0.00437336,-8.65297,25.0,0.0276141,-0.00476826,-9.79694,35.0,0.0262975,-0.00549187,-11.7959,55.0,0.0246143,-0.00606431,-13.8405,80.0,0.0228037,-0.00653564,-15.9925,120.0,0.0205056,-0.00668391,-18.0537,180.0,0.0179944,-0.00634367,-19.4194,270.0,0.015454,-0.00510395,-18.2767,405.0,0.0135949,-0.00301048,-12.4862,605.0,0.0126751,-0.000397773,-1.79748,900.0,0.0125874,0.00245654,11.043,1340.0,0.0132205,0.00530018,21.8461,2000.0
217.429,3,3.7952,1.449,,0,,1.5375,26.28,0.00855555,0.34241,0.0,0.5,0.0305616,-0.00188984,-3.5385,5.0,0.0302958,-0.00279568,-5.27229,10.0,0.0302244,-0.00358547,-6.76528,15.0,0.0291887,-0.00410077,-7.99722,20.0,0.0285068,-0.0043238,-8.62466,25.0,0.0277222,-0.00453258,-9.28569,35.0,0.0260976,-0.00549882,-11.8983,55.0,0.0247523,-0.00592163,-13.4543,80.0,0.0227898,-0.00645317,-15.81,120.0,0.0204843,-0.00671649,-18.1535,180.0,0.0179124,-0.00632401,-19.4456,270.0,0.0154597,-0.00504312,-18.0669,405.0,0.0136139,-0.00297894,-12.3427,605.0,0.0126449,-0.000381079,-1.72619,900.0,0.0125681,0.00244676,11.0165,1340.0,0.0132106,0.00530537,21.8803,2000.0
253.453,3,3.8054,1.449,,0,,1.55194,26.36,0.0082382,0.339613,0.0,0.5,0.030794,-0.00238513,-4.42896,5.0,0.0302853,-0.00235516,-4.44671,10.0,0.029776,-0.00351447,-6.73151,15.0,0.02924,-0.00390641,-7.60955,20.0,0.0283006,-0.00397396,-7.99321,25.0,0.0276212,-0.00468015,-9.61688,35.0,0.0260501,-0.00535426,-11.6146,55.0,0.0246358,-0.00594789,-13.5733,80.0,0.0227323,-0.00633118,-15.5631,120.0,0.0204441,-0.00662377,-17.952,180.0,0.0179149,-0.00625149,-19.2367,270.0,0.0154509,-0.00503063,-18.0346,405.0,0.0135934,-0.0029578,-12.2757,605.0,0.0126232,-0.000368772,-1.67335,900.0,0.0125691,0.00244245,10.9968,1340.0,0.0131986,0.00530761,21.9067,2000.0
289.447,3,3.8161,1.449,,0,,1.56639,26.43,0.0083219,0.340545,0.0,0.5,0.031058,-0.0016818,-3.09956,5.0,0.0299504,-0.0024571,-4.68999,10.0,0.0295441,-0.00333323,-6.43702,15.0,0.0289342,-0.0035833,-7.05972,20.0,0.0283709,-0.00381099,-7.65061,25.0,0.0273894,-0.0045533,-9.43872,35.0,0.0259889,-0.00542029,-11.7808,55.0,0.024546,-0.00580774,-13.3117,80.0,0.0227389,-0.00631516,-15.5213,120.0,0.0204961,-0.0065794,-17.7971,180.0,0.0178866,-0.00624334,-19.2416,270.0,0.0154307,-0.00502015,-18.0216,405.0,0.0136041,-0.00293553,-12.1767,605.0,0.012647,-0.000359624,-1.6288,900.0,0.0125592,0.0024527,11.0503,1340.0,0.0131978,0.0053165,21.9411,2000.0
325.51,3,3.8258,1.449,,0,,1.58083,26.46,0.0085416,0.343653,0.0,0.5,0.0306893,-0.00247225,-4.60566,5.0,0.0303774,-0.00256792,-4.83195,10.0,0.0293478,-0.00304504,-5.92365,15.0,0.0288622,-0.00375744,-7.41737,20.0,0.0280627,-0.00390175,-7.91548,25.0,0.0273225,-0.00451648,-9.38626,35.0,0.0258422,-0.00522101,-11.422,55.0,0.0244701,-0.00580504,-13.3456,80.0,0.0226612,-0.00621181,-15.3292,120.0,0.0203885,-0.006471,-17.6087,180.0,0.0178656,-0.00618958,-19.1087,270.0,0.0154246,-0.00497215,-17.8668,405.0,0.0135879,-0.00293094,-12.1723,605.0,0.0126353,-0.000364692,-1.65327,900.0,0.012554,0.00245545,11.0668,1340.0,0.0131918,0.00531871,21.9584,2000.0
361.483,3,3.7524,-0.965,,0,,1.59472,26.51,0.0110996,0.343031,0.0,0.5,0.0308863,-0.00169746,-3.14571,5.0,0.0300698,-0.00211911,-4.03114,10.0,0.0294374,-0.00288973,-5.60649,15.0,0.0286819,-0.00355749,-7.07044,20.0,0.0282325,-0.00421801,-8.49731,25.0,0.0272158,-0.00455753,-9.50648,35.0,0.025952,-0.00509988,-11.1176,55.0,0.0243851,-0.00578097,-13.3369,80.0,0.0225178,-0.00619091,-15.3727,120.0,0.0204085,-0.00648804,-17.6359,180.0,0.0179127,-0.00617976,-19.0341,270.0,0.015441,-0.00495015,-17.7751,405.0,0.0135852,-0.00291585,-12.1138,605.0,0.0126243,-0.000350956,-1.59242,900.0,0.0125427,0.00247568,11.1655,1340.0,0.0131878,0.00531943,21.9672,2000.0

File: EIS_Batteryname_0.0_Temperature_0.0°C_0.25C_precharge_0.0%25SOC_1.csv
Time [s],Channel,Voltage [V],Current [A],Ah-Step [Ah],Ah-Step Counter [Ah],SOC [%],Ah-Step BaSyTec [Ah],Temperature [Â°C],BatteryVoltagePeakPeak,BatteryCurrentPeakPeak,Capacity [mAh],C-Rate,ReZf_5.0Hz,lmZf_5.0Hz,PhaseZ_5.0Hz,Frequency_5.0Hz,ReZf_10.0Hz,lmZf_10.0Hz,PhaseZ_10.0Hz,Frequency_10.0Hz,ReZf_15.0Hz,lmZf_15.0Hz,PhaseZ_15.0Hz,Frequency_15.0Hz,ReZf_20.0Hz,lmZf_20.0Hz,PhaseZ_20.0Hz,Frequency_20.0Hz,ReZf_25.0Hz,lmZf_25.0Hz,PhaseZ_25.0Hz,Frequency_25.0Hz,ReZf_35.0Hz,lmZf_35.0Hz,PhaseZ_35.0Hz,Frequency_35.0Hz,ReZf_55.0Hz,lmZf_55.0Hz,PhaseZ_55.0Hz,Frequency_55.0Hz,ReZf_80.0Hz,lmZf_80.0Hz,PhaseZ_80.0Hz,Frequency_80.0Hz,ReZf_120.0Hz,lmZf_120.0Hz,PhaseZ_120.0Hz,Frequency_120.0Hz,ReZf_180.0Hz,lmZf_180.0Hz,PhaseZ_180.0Hz,Frequency_180.0Hz,ReZf_270.0Hz,lmZf_270.0Hz,PhaseZ_270.0Hz,Frequency_270.0Hz,ReZf_405.0Hz,lmZf_405.0Hz,PhaseZ_405.0Hz,Frequency_405.0Hz,ReZf_605.0Hz,lmZf_605.0Hz,PhaseZ_605.0Hz,Frequency_605.0Hz,ReZf_900.0Hz,lmZf_900.0Hz,PhaseZ_900.0Hz,Frequency_900.0Hz,ReZf_1340.0Hz,lmZf_1340.0Hz,PhaseZ_1340.0Hz,Frequency_1340.0Hz,ReZf_2000.0Hz,lmZf_2000.0Hz,PhaseZ_2000.0Hz,Frequency_2000.0Hz
75.5404,3,3.7463,0.723,,0,,1.465,25.7,0.00853725,0.34676,0.0,0.25,0.0326619,-0.00275911,-4.82859,5.0,0.0312161,-0.00304503,-5.5714,10.0,0.0304518,-0.00368335,-6.89681,15.0,0.0299982,-0.00427467,-8.1099,20.0,0.028982,-0.00459988,-9.01848,25.0,0.0281246,-0.00494622,-9.97451,35.0,0.0265559,-0.00571314,-12.1414,55.0,0.0250582,-0.00623911,-13.9815,80.0,0.0230707,-0.0067426,-16.2914,120.0,0.0206775,-0.00695847,-18.5993,180.0,0.0180678,-0.00656754,-19.9759,270.0,0.0155886,-0.00519214,-18.4215,405.0,0.0136987,-0.00309163,-12.7179,605.0,0.0127211,-0.000450689,-2.02906,900.0,0.012645,0.00240591,10.7727,1340.0,0.0132845,0.00527972,21.6746,2000.0
145.385,3,3.7583,0.724,,0,,1.47917,25.76,0.00850063,0.341478,0.0,0.25,0.0319349,-0.00223788,-4.00853,5.0,0.0310666,-0.00286363,-5.26647,10.0,0.030442,-0.00345574,-6.47643,15.0,0.0297175,-0.00395122,-7.5736,20.0,0.0292281,-0.00434065,-8.44722,25.0,0.0281567,-0.00488269,-9.83789,35.0,0.0265793,-0.00565513,-12.0114,55.0,0.0250083,-0.00618346,-13.8882,80.0,0.0231299,-0.00674493,-16.2572,120.0,0.0206944,-0.00691264,-18.4711,180.0,0.0180308,-0.00655507,-19.9787,270.0,0.0155229,-0.00520612,-18.5406,405.0,0.0136798,-0.00307405,-12.6648,605.0,0.012691,-0.000430069,-1.94088,900.0,0.0126184,0.00241989,10.8561,1340.0,0.0132653,0.00529319,21.7532,2000.0
217.38,3,3.7661,0.723,,0,,1.49361,25.82,0.00824517,0.344274,0.0,0.25,0.031711,-0.0023829,-4.29736,5.0,0.0309097,-0.0025225,-4.66549,10.0,0.0305092,-0.00341096,-6.37922,15.0,0.0296845,-0.00386705,-7.42222,20.0,0.0288115,-0.00436181,-8.6087,25.0,0.0280123,-0.00476803,-9.65983,35.0,0.0265097,-0.00558713,-11.9014,55.0,0.0249978,-0.0061145,-13.7447,80.0,0.023015,-0.00665373,-16.1248,120.0,0.0206481,-0.00681037,-18.2541,180.0,0.0180362,-0.00649919,-19.8161,270.0,0.0155357,-0.00516564,-18.392,405.0,0.0136614,-0.003052,-12.5933,605.0,0.0126805,-0.000411597,-1.85911,900.0,0.012615,0.00241506,10.8378,1340.0,0.0132655,0.00528689,21.7295,2000.0
289.437,3,3.7721,0.723,,0,,1.50806,25.88,0.00857038,0.341788,0.0,0.25,0.0313918,-0.00251368,-4.57817,5.0,0.0306745,-0.002801,-5.21742,10.0,0.0304272,-0.00362051,-6.78567,15.0,0.0298958,-0.00393647,-7.50115,20.0,0.0288308,-0.00436197,-8.60334,25.0,0.0277195,-0.00471835,-9.66019,35.0,0.0263941,-0.00534603,-11.4502,55.0,0.0249275,-0.00612033,-13.7947,80.0,0.0229525,-0.00654288,-15.9108,120.0,0.0206817,-0.00679663,-18.1921,180.0,0.0180513,-0.00646128,-19.6943,270.0,0.0154832,-0.00513686,-18.3543,405.0,0.0136553,-0.00304644,-12.5765,605.0,0.0126856,-0.000399965,-1.80588,900.0,0.012618,0.002421,10.8612,1340.0,0.0132632,0.00530836,21.8128,2000.0
361.479,3,3.7774,0.723,,0,,1.5225,25.94,0.00818327,0.336506,0.0,0.25,0.0313423,-0.000678733,-1.24057,5.0,0.030979,-0.00285603,-5.26735,10.0,0.0298471,-0.00345401,-6.60111,15.0,0.0294604,-0.00386742,-7.47875,20.0,0.0288473,-0.00435845,-8.59167,25.0,0.0276615,-0.00440484,-9.04785,35.0,0.0265636,-0.00536726,-11.423,55.0,0.0248406,-0.00599328,-13.5645,80.0,0.0229862,-0.00657517,-15.9631,120.0,0.0206188,-0.00679719,-18.2453,180.0,0.0180221,-0.00644625,-19.6814,270.0,0.0155442,-0.00515506,-18.3475,405.0,0.013635,-0.00302323,-12.5017,605.0,0.0126778,-0.000422837,-1.91026,900.0,0.0126095,0.00242396,10.8814,1340.0,0.0132547,0.00529645,21.7811,2000.0
433.399,3,3.7824,0.723,,0,,1.53694,25.97,0.00827656,0.346138,0.0,0.25,0.0311912,-0.00177552,-3.25798,5.0,0.0304216,-0.00262974,-4.94054,10.0,0.0302245,-0.00347832,-6.56487,15.0,0.0293705,-0.00374999,-7.27609,20.0,0.0286689,-0.00416868,-8.27327,25.0,0.0279762,-0.00470173,-9.54006,35.0,0.0262591,-0.00538889,-11.5972,55.0,0.0248799,-0.00608418,-13.7415,80.0,0.0229096,-0.00645908,-15.7452,120.0,0.0206035,-0.00675116,-18.1424,180.0,0.0180159,-0.00641197,-19.5909,270.0,0.0155079,-0.00513137,-18.3088,405.0,0.0136483,-0.00299803,-12.389,605.0,0.012651,-0.000386492,-1.74986,900.0,0.0126047,0.00244686,10.9858,1340.0,0.0132423,0.00531494,21.8686,2000.0
505.433,3,3.7875,0.723,,0,,1.55139,26.01,0.00830359,0.347692,0.0,0.25,0.031197,-0.00213611,-3.91703,5.0,0.030667,-0.00256116,-4.77399,10.0,0.0298896,-0.00313271,-5.98329,15.0,0.0293491,-0.00371756,-7.21905,20.0,0.0288362,-0.00402618,-7.94839,25.0,0.0276752,-0.00463045,-9.49841,35.0,0.0262874,-0.00537707,-11.5603,55.0,0.0247805,-0.00598148,-13.5704,80.0,0.0228904,-0.00648141,-15.8095,120.0,0.0205527,-0.00674123,-18.1594,180.0,0.0180248,-0.0063739,-19.4745,270.0,0.0155299,-0.00508231,-18.1212,405.0,0.0136553,-0.00298702,-12.3388,605.0,0.0126648,-0.000409815,-1.85337,900.0,0.0126007,0.00243569,10.9402,1340.0,0.013234,0.00530912,21.8594,2000.0
577.454,3,3.7926,0.723,,0,,1.56611,26.04,0.00839862,0.347381,0.0,0.25,0.0307436,-0.00192808,-3.58859,5.0,0.0306382,-0.00253599,-4.73172,10.0,0.0300037,-0.00302406,-5.75539,15.0,0.0292527,-0.00366578,-7.14275,20.0,0.0286554,-0.00395789,-7.86393,25.0,0.0276018,-0.00455634,-9.37353,35.0,0.0262793,-0.00527291,-11.3457,55.0,0.0247295,-0.00592659,-13.4771,80.0,0.0228914,-0.0064125,-15.649,120.0,0.0205599,-0.00671188,-18.0795,180.0,0.0180018,-0.00637073,-19.4886,270.0,0.0155019,-0.00509042,-18.1789,405.0,0.0136332,-0.00298804,-12.3622,605.0,0.0126829,-0.000385445,-1.74074,900.0,0.0125853,0.00243769,10.9621,1340.0,0.0132232,0.00532064,21.9185,2000.0
649.497,3,3.7978,0.723,,0,,1.58056,26.07,0.00840559,0.345517,0.0,0.25,0.031513,-0.00182808,-3.32003,5.0,0.0306835,-0.00262267,-4.88548,10.0,0.0296218,-0.00303646,-5.85282,15.0,0.0291994,-0.00364112,-7.108,20.0,0.0283105,-0.00393899,-7.92102,25.0,0.0277099,-0.00451126,-9.2468,35.0,0.0262586,-0.00524843,-11.303,55.0,0.024824,-0.00582922,-13.2149,80.0,0.0228544,-0.0063551,-15.5396,120.0,0.0205487,-0.00668573,-18.0228,180.0,0.0179835,-0.00632491,-19.3771,270.0,0.0154807,-0.00507527,-18.1515,405.0,0.0136349,-0.00300586,-12.4322,605.0,0.0126487,-0.00038735,-1.75406,900.0,0.0125789,0.00245046,11.0236,1340.0,0.0132273,0.00532387,21.9244,2000.0
721.487,3,3.8027,0.723,,0,,1.595,26.08,0.00848581,0.343963,0.0,0.25,0.0309944,-0.00167044,-3.08496,5.0,0.030474,-0.00285299,-5.34848,10.0,0.029712,-0.00313205,-6.01753,15.0,0.0288407,-0.00366715,-7.24639,20.0,0.0286005,-0.00388343,-7.73243,25.0,0.0274891,-0.00461984,-9.54004,35.0,0.0261613,-0.00535728,-11.5729,55.0,0.0246458,-0.00592918,-13.5269,80.0,0.0227582,-0.00634584,-15.5805,120.0,0.0204949,-0.00666618,-18.0177,180.0,0.0179544,-0.00631485,-19.3776,270.0,0.0154709,-0.00508481,-18.1942,405.0,0.0136186,-0.00298928,-12.3801,605.0,0.0126614,-0.000373269,-1.68864,900.0,0.0125765,0.00243356,10.9514,1340.0,0.0132293,0.00530932,21.8671,2000.0

File: EIS_Batteryname_0.0_Temperature_0.0°C_0.33C_precharge_0.0%25SOC_1.csv
Time [s],Channel,Voltage [V],Current [A],Ah-Step [Ah],Ah-Step Counter [Ah],SOC [%],Ah-Step BaSyTec [Ah],Temperature [Â°C],BatteryVoltagePeakPeak,BatteryCurrentPeakPeak,Capacity [mAh],C-Rate,ReZf_5.0Hz,lmZf_5.0Hz,PhaseZ_5.0Hz,Frequency_5.0Hz,ReZf_10.0Hz,lmZf_10.0Hz,PhaseZ_10.0Hz,Frequency_10.0Hz,ReZf_15.0Hz,lmZf_15.0Hz,PhaseZ_15.0Hz,Frequency_15.0Hz,ReZf_20.0Hz,lmZf_20.0Hz,PhaseZ_20.0Hz,Frequency_20.0Hz,ReZf_25.0Hz,lmZf_25.0Hz,PhaseZ_25.0Hz,Frequency_25.0Hz,ReZf_35.0Hz,lmZf_35.0Hz,PhaseZ_35.0Hz,Frequency_35.0Hz,ReZf_55.0Hz,lmZf_55.0Hz,PhaseZ_55.0Hz,Frequency_55.0Hz,ReZf_80.0Hz,lmZf_80.0Hz,PhaseZ_80.0Hz,Frequency_80.0Hz,ReZf_120.0Hz,lmZf_120.0Hz,PhaseZ_120.0Hz,Frequency_120.0Hz,ReZf_180.0Hz,lmZf_180.0Hz,PhaseZ_180.0Hz,Frequency_180.0Hz,ReZf_270.0Hz,lmZf_270.0Hz,PhaseZ_270.0Hz,Frequency_270.0Hz,ReZf_405.0Hz,lmZf_405.0Hz,PhaseZ_405.0Hz,Frequency_405.0Hz,ReZf_605.0Hz,lmZf_605.0Hz,PhaseZ_605.0Hz,Frequency_605.0Hz,ReZf_900.0Hz,lmZf_900.0Hz,PhaseZ_900.0Hz,Frequency_900.0Hz,ReZf_1340.0Hz,lmZf_1340.0Hz,PhaseZ_1340.0Hz,Frequency_1340.0Hz,ReZf_2000.0Hz,lmZf_2000.0Hz,PhaseZ_2000.0Hz,Frequency_2000.0Hz
56.2889,3,3.7304,0.964,,0,,1.465,25.81,0.0086968,0.341478,0.0,0.33,0.0322879,-0.00119163,-2.11363,5.0,0.0316467,-0.00321557,-5.80182,10.0,0.0304774,-0.0036095,-6.75418,15.0,0.0295177,-0.00379797,-7.33183,20.0,0.0290629,-0.00445429,-8.71357,25.0,0.0279425,-0.00494093,-10.0277,35.0,0.0265206,-0.00564387,-12.0139,55.0,0.0250479,-0.00622215,-13.9504,80.0,0.0230483,-0.00667512,-16.1518,120.0,0.0206782,-0.00686696,-18.3707,180.0,0.0180685,-0.00649975,-19.7851,270.0,0.0155422,-0.00516521,-18.3834,405.0,0.0136477,-0.00307892,-12.7131,605.0,0.01268,-0.000447347,-2.02054,900.0,0.0126137,0.00241288,10.8294,1340.0,0.0132657,0.00530265,21.7878,2000.0
110.467,3,3.7404,0.964,,0,,1.47944,25.89,0.0086253,0.342099,0.0,0.33,0.0318984,-0.00166307,-2.98449,5.0,0.031055,-0.00287317,-5.28588,10.0,0.0299929,-0.0033347,-6.34426,15.0,0.0292409,-0.0039331,-7.66069,20.0,0.029244,-0.00442736,-8.60885,25.0,0.0279143,-0.00468476,-9.52699,35.0,0.0265884,-0.00562956,-11.9547,55.0,0.024935,-0.00611754,-13.7846,80.0,0.022973,-0.00668288,-16.2198,120.0,0.0206663,-0.00691816,-18.5082,180.0,0.018039,-0.00648981,-19.7869,270.0,0.0155075,-0.00516483,-18.4205,405.0,0.0136499,-0.00304529,-12.5768,605.0,0.0126826,-0.000430276,-1.9431,900.0,0.0126191,0.00242886,10.8948,1340.0,0.013258,0.00529917,21.7864,2000.0
165.03,3,3.7487,0.964,,0,,1.49417,25.96,0.00888861,0.34241,0.0,0.33,0.0310658,-0.00168226,-3.09962,5.0,0.0311116,-0.00250477,-4.60291,10.0,0.030631,-0.00341098,-6.35411,15.0,0.0299921,-0.00374816,-7.12341,20.0,0.0290871,-0.0041285,-8.07836,25.0,0.0279837,-0.00488016,-9.89248,35.0,0.0264501,-0.00556418,-11.8798,55.0,0.0249911,-0.0061583,-13.843,80.0,0.0229565,-0.00657418,-15.9804,120.0,0.0206649,-0.00685286,-18.3465,180.0,0.018022,-0.00649946,-19.8314,270.0,0.015494,-0.00514945,-18.3842,405.0,0.013637,-0.00302735,-12.5164,605.0,0.0126786,-0.000424163,-1.91611,900.0,0.012611,0.0024134,10.8338,1340.0,0.013251,0.00530732,21.8273,2000.0
219.634,3,3.7575,0.964,,0,,1.50889,26.03,0.00842739,0.341167,0.0,0.33,0.0317989,-0.00225162,-4.05023,5.0,0.0308229,-0.00296212,-5.48933,10.0,0.0297951,-0.0035732,-6.83857,15.0,0.0291723,-0.00393682,-7.68568,20.0,0.0290242,-0.00408535,-8.01212,25.0,0.0277474,-0.00474162,-9.69733,35.0,0.0265677,-0.00544357,-11.5793,55.0,0.0247919,-0.00614308,-13.9168,80.0,0.0230322,-0.00661864,-16.0328,120.0,0.0206369,-0.00678909,-18.2101,180.0,0.0180085,-0.00646526,-19.7487,270.0,0.0154737,-0.00515271,-18.4176,405.0,0.0136296,-0.0030103,-12.4547,605.0,0.0126795,-0.000417718,-1.88688,900.0,0.0126107,0.0024184,10.8561,1340.0,0.0132376,0.00529774,21.8115,2000.0
274.132,3,3.7661,0.964,,0,,1.52333,26.08,0.00824692,0.341167,0.0,0.33,0.0316752,-0.00212284,-3.83417,5.0,0.0310718,-0.00288701,-5.30836,10.0,0.0299644,-0.00363291,-6.91285,15.0,0.0294622,-0.0041943,-8.1023,20.0,0.0286694,-0.00435218,-8.63193,25.0,0.0277575,-0.00464265,-9.49524,35.0,0.0264805,-0.00549753,-11.7284,55.0,0.0248949,-0.00611039,-13.7905,80.0,0.0229838,-0.00661201,-16.0495,120.0,0.0206086,-0.00682439,-18.3219,180.0,0.0179769,-0.0064524,-19.7444,270.0,0.0154867,-0.00509645,-18.2156,405.0,0.0136524,-0.00301795,-12.4651,605.0,0.0126802,-0.000422014,-1.90618,900.0,0.0125807,0.00242396,10.9057,1340.0,0.0132409,0.00529625,21.801,2000.0
328.716,3,3.7761,0.964,,0,,1.53806,26.12,0.0080429,0.339924,0.0,0.33,0.0323626,-0.00158576,-2.80524,5.0,0.0305423,-0.00253629,-4.74706,10.0,0.030333,-0.00313108,-5.89341,15.0,0.0292445,-0.00399542,-7.77966,20.0,0.0285915,-0.00407972,-8.12072,25.0,0.0278958,-0.00482029,-9.80369,35.0,0.0263081,-0.00544161,-11.6863,55.0,0.024825,-0.00597394,-13.5305,80.0,0.0228885,-0.00650426,-15.8637,120.0,0.0205916,-0.00678478,-18.2366,180.0,0.0179617,-0.00637957,-19.5538,270.0,0.0155154,-0.00513341,-18.3073,405.0,0.0136378,-0.00300883,-12.4415,605.0,0.0126577,-0.000395942,-1.79167,900.0,0.0125963,0.00241367,10.8474,1340.0,0.0132334,0.00529777,21.8179,2000.0
383.286,3,3.7872,0.964,,0,,1.5525,26.17,0.00822774,0.349556,0.0,0.33,0.0315649,-0.00197347,-3.57753,5.0,0.0307306,-0.00265348,-4.93505,10.0,0.0298133,-0.00349123,-6.6791,15.0,0.0296495,-0.00392027,-7.53199,20.0,0.0286115,-0.00417309,-8.29829,25.0,0.027683,-0.00479523,-9.82722,35.0,0.0261641,-0.00538332,-11.6265,55.0,0.0248528,-0.00603821,-13.6559,80.0,0.0229642,-0.00637019,-15.5038,120.0,0.0205292,-0.00676165,-18.2302,180.0,0.0179571,-0.00635873,-19.4994,270.0,0.0154931,-0.00508033,-18.1547,405.0,0.0136015,-0.00299731,-12.4274,605.0,0.0126611,-0.000393566,-1.78044,900.0,0.0125853,0.00244122,10.9775,1340.0,0.0132148,0.0053027,21.864,2000.0
437.815,3,3.798,0.964,,0,,1.56722,26.2,0.00861833,0.350178,0.0,0.33,0.0306235,-0.00189573,-3.54235,5.0,0.0302741,-0.00292941,-5.52691,10.0,0.0296789,-0.00349068,-6.70803,15.0,0.0292474,-0.00387352,-7.54435,20.0,0.0287767,-0.00429467,-8.48826,25.0,0.0276438,-0.00460145,-9.45053,35.0,0.0260627,-0.00535813,-11.6173,55.0,0.0247171,-0.00595882,-13.5543,80.0,0.0228353,-0.00648516,-15.8544,120.0,0.0205688,-0.00669322,-18.0252,180.0,0.0179701,-0.00632877,-19.4014,270.0,0.0154943,-0.00506557,-18.1041,405.0,0.0136103,-0.00296936,-12.3074,605.0,0.0126529,-0.000367188,-1.66226,900.0,0.0125914,0.00245214,11.0203,1340.0,0.0132154,0.0053087,21.8855,2000.0
492.398,3,3.8067,0.964,,0,,1.58194,26.22,0.00835677,0.344895,0.0,0.33,0.0299109,-0.00181627,-3.47488,5.0,0.0292685,-0.00263535,-5.14507,10.0,0.0295593,-0.00350471,-6.76172,15.0,0.0289337,-0.00352461,-6.94537,20.0,0.0281677,-0.00364707,-7.37746,25.0,0.0275195,-0.00460491,-9.49943,35.0,0.0261216,-0.00527216,-11.4108,55.0,0.0245721,-0.00588601,-13.4709,80.0,0.0227328,-0.00638669,-15.6925,120.0,0.0204634,-0.00663214,-17.9574,180.0,0.0179435,-0.00628193,-19.2949,270.0,0.0154592,-0.00502453,-18.0052,405.0,0.013611,-0.00297024,-12.3103,605.0,0.0126454,-0.000379674,-1.71977,900.0,0.0125815,0.00244596,11.0016,1340.0,0.013224,0.00531386,21.892,2000.0