Folder: Batterylab/src

Note: README.md
# ğŸ”‹ Analyse- und Visualisierungsanwendung fÃ¼r Zellmessdaten

Diese Anwendung wurde mit [Streamlit](https://streamlit.io) entwickelt und dient zur **Analyse, Verarbeitung und Visualisierung von Messdaten** aus Zellversuchen.  
Sie ermÃ¶glicht die interaktive Auswertung von Parametern, Zellen und Messwerten sowie die Ã¼bersichtliche Darstellung von Kennwerten in Tabellen und Diagrammen.

---

## ğŸš€ Funktionen

- **Datenimport:** CSV- oder mpr-Dateien kÃ¶nnen direkt in der Anwendung geladen werden.  
- **Filterung:** Parameter (z. B. Zyklus, Zelle, Ladezustand) kÃ¶nnen gezielt ein- oder ausgeschlossen werden.  
- **Berechnung:** Kennwerte wie Mittelwerte, Differenzen oder normierte Kurven werden automatisch berechnet.  
- **Visualisierung:** Interaktive Diagramme fÃ¼r ZellverlÃ¤ufe, Trends und Vergleichsdaten.  
- **Export:** Ergebnisse lassen sich als CSV-Datei speichern.  

---

## ğŸ§© Voraussetzungen

- Python 3.10 oder neuer  
- Internetbrowser (z. B. Chrome, Firefox, Edge)  
- Empfohlene BildschirmauflÃ¶sung: 1920Ã—1080  

---

## âš™ï¸ Installation

1. Repository klonen:
   ```bash
   git clone https://github.com/janostoldy/Batterylab
   cd Batterylab
   ```

2. Virtuelle Umgebung erstellen und aktivieren:
   ```bash
   python -m venv .venv
   source .venv/bin/activate   # macOS/Linux
   .venv\Scripts\activate      # Windows
   ```

3. AbhÃ¤ngigkeiten installieren:
   ```bash
   pip install -r requirements.txt
   ```

---

## â–¶ï¸ Anwendung starten

```bash
streamlit run app.py
```

AnschlieÃŸend Ã¶ffnet sich automatisch der Browser unter  
ğŸ‘‰ **http://localhost:8501**

---

## ğŸ“‚ Projektstruktur

```
â”œâ”€â”€ app.py                # Hauptdatei der Streamlit-Anwendung
â”œâ”€â”€ app_pages/            # Unterseiten der Streamlit-Anwendung
â”œâ”€â”€ classes/              
    â”œâ”€â”€ datenanalyse.py   # Auswertung der Ergebnisse
    â””â”€â”€ datenbank.py      # Komunikation mit Datenbank
â”œâ”€â”€ src/                  # Hilfsfunktionen zur Filterung oder Auswertung
â”œâ”€â”€ requirements.txt      # Liste der Python-AbhÃ¤ngigkeiten
â””â”€â”€ README.md             # Projektdokumentation
```

---

## ğŸ§  Beispielnutzung

1. Datei im Bereich **â€Daten hinzufÃ¼genâ€œ** auswÃ¤hlen
2. Im Bereich **â€EISâ€œ** wechseln 
3. Parameter auswÃ¤hlen oder filtern 
4. Ergebnisse werden automatisch berechnet und angezeigt
5. Interaktive Diagramme ermÃ¶glichen Detailanalysen
6. Export der ergebnisse als ```.csv```-Datei

---

## ğŸ§ª Verwendete Bibliotheken

- [Streamlit](https://streamlit.io/) â€“ WeboberflÃ¤che  
- [pandas](https://pandas.pydata.org/) â€“ Datenverarbeitung  
- [numpy](https://numpy.org/) â€“ numerische Berechnungen  
- [plotly](https://plotly.com/python/) â€“ Diagramme  
- [scipy](https://scipy.org) - Datenauswertung
- [galvani](https://github.com/echemdata/galvani) - Import von ```.mpr```-Datein

---

## ğŸ§¾ Lizenz


---

## ğŸ‘¤ Autor

Entwickelt von **<DEIN NAME>**  
Maschinenbau â€“ Technische UniversitÃ¤t MÃ¼nchen  
ğŸ“ MÃ

File: bode_form.csv
soc,freqhz,calc_ima,calc_rezohm,calc_imzohm,zohm,phasezdeg,temperaturec,cycle,zelle,calc_soc
250,201.99,1250,0.0125032,-0.00124774,0.0125653,-5.69886,22.9506,0,JT_VTC_008,10
250,201.99,1250,0.0121003,-0.000739652,0.0121228,-3.49796,23.2841,35,JT_VTC_008,10
250,201.99,2500,0.01213327,-0.0007842164,0.0121586,-3.69809,22.721,20,JT_VTC_008,10
250,201.99,5000,0.01249813,-0.00122698,0.0125582,-5.60695,22.8398,0,JT_VTC_008,10
250,201.99,5000,0.0120761,-0.0007310471,0.01209821,-3.46427,23.3552,35,JT_VTC_008,10
250,201.99,7500,0.0121158,-0.0007600834,0.0121396,-3.58975,22.7765,20,JT_VTC_008,10
250,201.99,10000,0.0124858,-0.0011981,0.0125431,-5.48117,22.6815,0,JT_VTC_008,10
250,201.99,10000,0.0120778,-0.000708443,0.0120986,-3.356921,23.4106,35,JT_VTC_008,10
375,201.99,1250,0.0119967,-0.0007129337,0.0120178,-3.40095,22.721,20,JT_VTC_008,15
375,201.99,2500,0.0123653,-0.00112984,0.0124168,-5.22074,22.6894,0,JT_VTC_008,15
375,201.99,2500,0.01201796,-0.000694252,0.012038,-3.30618,23.1971,35,JT_VTC_008,15
375,201.99,5000,0.01201112,-0.000702279,0.0120316,-3.34622,22.7052,20,JT_VTC_008,15
375,201.99,7500,0.01237059,-0.0010984,0.0124193,-5.07403,22.919,0,JT_VTC_008,15
375,201.99,7500,0.0119922,-0.000678976,0.0120114,-3.24053,23.2287,35,JT_VTC_008,15
375,201.99,10000,0.0119907,-0.000683021,0.0120101,-3.26019,22.7131,20,JT_VTC_008,15
500,201.99,1250,0.012259,-0.0010631,0.012305,-4.95629,22.81605,0,JT_VTC_008,20
500,201.99,1250,0.011934,-0.0006499539,0.0119517,-3.11737,23.2366,35,JT_VTC_008,20
500,201.99,2500,0.01193559,-0.0006696827,0.0119544,-3.21139,22.8952,20,JT_VTC_008,20
500,201.99,5000,0.0122677,-0.0010542,0.0123129,-4.911555,22.7765,0,JT_VTC_008,20
500,201.99,5000,0.011902,-0.0006449854,0.0119194,-3.10191,23.32361,35,JT_VTC_008,20
500,201.99,7500,0.0119115,-0.0006546789,0.01192947,-3.145923,22.91105,20,JT_VTC_008,20
500,201.99,10000,0.0122277,-0.00101933,0.0122701,-4.765288,22.7923,0,JT_VTC_008,20
500,201.99,10000,0.0118854,-0.000638137,0.0119026,-3.0733,23.3078,35,JT_VTC_008,20
625,201.99,1250,0.01184,-0.0006187462,0.0118561,-2.9915,22.7527,20,JT_VTC_008,25
625,201.99,2500,0.0122138,-0.00099723,0.0122544,-4.667723,22.5944,0,JT_VTC_008,25
625,201.99,2500,0.0118704,-0.0006153693,0.0118864,-2.96759,23.29989,35,JT_VTC_008,25
625,201.99,5000,0.0118453,-0.0006094893,0.011861,-2.9455,22.86355,20,JT_VTC_008,25
625,201.99,7500,0.0121576,-0.0009724506,0.0121964,-4.573179,22.8715,0,JT_VTC_008,25
625,201.99,7500,0.0118449,-0.000602815,0.0118602,-2.91341,23.27617,35,JT_VTC_008,25
625,201.99,10000,0.0118366,-0.000591263,0.0118513,-2.859679,22.729,20,JT_VTC_008,25
750,201.99,1250,0.0121294,-0.000944353,0.0121662,-4.45185,22.824,0,JT_VTC_008,30
750,201.99,1250,0.0118325,-0.0005931485,0.0118474,-2.86977,23.29989,35,JT_VTC_008,30
750,201.99,2500,0.0118128,-0.0005851353,0.0118273,-2.83577,22.7131,20,JT_VTC_008,30
750,201.99,5000,0.0121147,-0.0009229252,0.0121498,-4.35652,22.8081,0,JT_VTC_008,30
750,201.99,5000,0.0117894,-0.000573953,0.0118034,-2.787173,23.292,35,JT_VTC_008,30
750,201.99,7500,0.0117899,-0.000565068,0.0118035,-2.74397,22.6498,20,JT_VTC_008,30
750,201.99,10000,0.0120948,-0.00089561,0.01212794,-4.234969,22.5944,0,JT_VTC_008,30
750,201.99,10000,0.0117801,-0.0005461488,0.0117928,-2.654442,23.17338,35,JT_VTC_008,30
875,201.99,1250,0.0117952,-0.0005818957,0.0118096,-2.82429,22.626,15,JT_VTC_008,35
875,201.99,1250,0.0117846,-0.0005901796,0.01179941,-2.867,23.1971,50,JT_VTC_008,35
875,201.99,2500,0.0118336,-0.000593737,0.0118485,-2.87234,23.0627,30,JT_VTC_008,35
875,201.99,5000,0.0118104,-0.0005872244,0.011825,-2.84646,22.81605,15,JT_VTC_008,35
875,201.99,5000,0.0117682,-0.000575432,0.0117823,-2.79937,23.205,50,JT_VTC_008,35
875,201.99,7500,0.0117915,-0.0005721879,0.0118053,-2.77813,23.1576,30,JT_VTC_008,35
875,201.99,10000,0.0117627,-0.0005568123,0.0117759,-2.71019,22.729,15,JT_VTC_008,35
875,201.99,10000,0.0117404,-0.0005695194,0.0117542,-2.77721,23.29989,50,JT_VTC_008,35
1000,201.99,1250,0.01178515,-0.000589781,0.0117999,-2.864945,23.118,30,JT_VTC_008,40
1000,201.99,2500,0.0117822,-0.0005768164,0.0117963,-2.80276,22.6656,15,JT_VTC_008,40
1000,201.99,2500,0.0117665,-0.00058086,0.01178082,-2.82615,23.205,50,JT_VTC_008,40
1000,201.99,5000,0.01178,-0.000569623,0.0117938,-2.76838,23.3157,30,JT_VTC_008,40
1000,201.99,7500,0.011755,-0.0005684532,0.0117688,-2.76857,22.6102,15,JT_VTC_008,40
1000,201.99,7500,0.0117407,-0.0005739579,0.01175471,-2.798746,23.205,50,JT_VTC_008,40
1000,201.99,10000,0.0117545,-0.0005579687,0.0117677,-2.71772,23.2129,30,JT_VTC_008,40
1125,201.99,1250,0.0117588,-0.0005819793,0.01177321,-2.83343,22.6498,15,JT_VTC_008,45
1125,201.99,1250,0.0117722,-0.0005949823,0.0117873,-2.89333,23.292,50,JT_VTC_008,45
1125,201.99,2500,0.0117747,-0.00058377,0.0117892,-2.8383,23.32361,30,JT_VTC_008,45
1125,201.99,5000,0.0117685,-0.0005722231,0.0117824,-2.78372,22.6815,15,JT_VTC_008,45
1125,201.99,5000,0.0117171,-0.0005900582,0.011732,-2.8829,23.6241,50,JT_VTC_008,45
1125,201.99,7500,0.0117525,-0.0005678722,0.0117662,-2.76634,23.3078,30,JT_VTC_008,45
1125,201.99,10000,0.0117265,-0.000551023,0.0117394,-2.69033,22.5627,15,JT_VTC_008,45
1125,201.99,10000,0.01172605,-0.000578843,0.0117403,-2.82605,23.6083,50,JT_VTC_008,45
1250,201.99,1250,0.0118393,-0.0006344992,0.0118563,-3.0677,23.27617,26,JT_VTC_008,50
1250,201.99,2500,0.01176988,-0.0006086417,0.0117856,-2.96023,22.8477,10,JT_VTC_008,50
1250,201.99,2500,0.0117343,-0.0006015671,0.0117497,-2.934736,23.17338,45,JT_VTC_008,50
1250,201.99,5000,0.011798,-0.000626131,0.0118146,-3.0379,23.0469,26,JT_VTC_008,50
1250,201.99,7500,0.0117573,-0.0005880083,0.01177198,-2.86311,22.91105,10,JT_VTC_008,50
1250,201.99,7500,0.0117311,-0.0005921803,0.01174601,-2.88982,23.1576,45,JT_VTC_008,50
1250,201.99,10000,0.0117893,-0.000602155,0.0118047,-2.92392,23.2208,26,JT_VTC_008,50
1375,201.99,1250,0.01176071,-0.0006146015,0.0117768,-2.991492,22.73688,10,JT_VTC_008,55
1375,201.99,1250,0.011766,-0.000624952,0.0117826,-3.04042,23.3869,45,JT_VTC_008,55
1375,201.99,2500,0.0118064,-0.000640638,0.0118238,-3.10592,23.0627,26,JT_VTC_008,55
1375,201.99,5000,0.0117412,-0.0006099032,0.011757,-2.97359,22.8398,10,JT_VTC_008,55
1375,201.99,5000,0.0117206,-0.000613112,0.0117367,-2.99444,23.14175,45,JT_VTC_008,55
1375,201.99,7500,0.0117905,-0.000621715,0.0118069,-3.018411,23.2524,26,JT_VTC_008,55
1375,201.99,10000,0.01171391,-0.000573371,0.0117279,-2.80227,22.7765,10,JT_VTC_008,55
1375,201.99,10000,0.0117098,-0.0005917818,0.01172477,-2.89311,23.1892,45,JT_VTC_008,55
1500,201.99,1250,0.0117824,-0.0006391861,0.0117997,-3.105214,23.2524,26,JT_VTC_008,60
1500,201.99,2500,0.0117644,-0.00061355,0.0117803,-2.98546,22.9744,10,JT_VTC_008,60
1500,201.99,2500,0.0117374,-0.0006097873,0.0117533,-2.97398,23.1892,45,JT_VTC_008,60
1500,201.99,5000,0.0117922,-0.000636124,0.0118093,-3.08781,23.0548,26,JT_VTC_008,60
1500,201.99,7500,0.0117358,-0.0006040972,0.0117514,-2.94668,22.76063,10,JT_VTC_008,60
1500,201.99,7500,0.0116943,-0.000581129,0.0117087,-2.84489,23.17338,45,JT_VTC_008,60
1500,201.99,10000,0.0117578,-0.000605772,0.0117734,-2.949315,23.27617,26,JT_VTC_008,60
1625,201.99,1250,0.0117296,-0.000588083,0.0117444,-2.870204,22.7131,10,JT_VTC_008,65
1625,201.99,1250,0.0117563,-0.000618276,0.0117725,-3.010481,23.205,45,JT_VTC_008,65
1625,201.99,2500,0.0117997,-0.0006226129,0.0118161,-3.02043,23.2366,26,JT_VTC_008,65
1625,201.99,5000,0.01171577,-0.00058812,0.0117305,-2.87378,22.7685,10,JT_VTC_008,65
1625,201.99,5000,0.0117157,-0.0006032571,0.0117312,-2.947645,23.205,45,JT_VTC_008,65
1625,201.99,7500,0.0117723,-0.000611695,0.0117882,-2.97443,23.039,26,JT_VTC_008,65
1625,201.99,10000,0.0117028,-0.0005590526,0.0117161,-2.734999,22.7923,10,JT_VTC_008,65
1625,201.99,10000,0.0116928,-0.0006001501,0.0117082,-2.93821,23.1892,45,JT_VTC_008,65
1750,201.99,1250,0.0117207,-0.0005842663,0.0117352,-2.85379,22.6498,25,JT_VTC_008,70
1750,201.99,2500,0.0118359,-0.0006594704,0.0118543,-3.1891,22.7685,5,JT_VTC_008,70
1750,201.99,2500,0.0117172,-0.000626212,0.0117339,-3.05919,23.14175,40,JT_VTC_008,70
1750,201.99,5000,0.0117182,-0.0005869797,0.0117329,-2.86763,22.8477,25,JT_VTC_008,70
1750,201.99,7500,0.0118066,-0.000648758,0.0118244,-3.14517,22.8873,5,JT_VTC_008,70
1750,201.99,7500,0.0116808,-0.0006028136,0.0116964,-2.954248,23.14175,40,JT_VTC_008,70
1750,201.99,10000,0.0116762,-0.0005667655,0.01169,-2.77897,22.6894,25,JT_VTC_008,70
1875,201.99,1250,0.0120142,-0.000844998,0.0120439,-4.02318,22.436,0,JT_VTC_008,75
1875,201.99,1250,0.0117468,-0.0006797859,0.0117665,-3.311998,23.2841,35,JT_VTC_008,75
1875,201.99,2500,0.0117505,-0.000635727,0.0117677,-3.0968,22.1352,20,JT_VTC_008,75
1875,201.99,5000,0.0119926,-0.0008397645,0.012022,-4.00552,22.5152,0,JT_VTC_008,75
1875,201.99,5000,0.0117532,-0.000681391,0.011773,-3.317997,23.1101,35,JT_VTC_008,75
1875,201.99,7500,0.0117389,-0.0006255478,0.0117556,-3.050307,22.91105,20,JT_VTC_008,75
1875,201.99,10000,0.0119506,-0.0008352546,0.0119797,-3.99804,22.539,0,JT_VTC_008,75
1875,201.99,10000,0.0117115,-0.0006649475,0.0117304,-3.2496,23.4027,35,JT_VTC_008,75
2000,201.99,1250,0.011773,-0.0006967756,0.0117936,-3.38706,22.9744,20,JT_VTC_008,80
2000,201.99,2500,0.0120134,-0.000899369,0.012047,-4.28139,22.4598,0,JT_VTC_008,80
2000,201.99,2500,0.01180094,-0.000727806,0.0118234,-3.52916,23.27617,35,JT_VTC_008,80
2000,201.99,5000,0.011766,-0.0006820093,0.0117857,-3.317417,22.8398,20,JT_VTC_008,80
2000,201.99,7500,0.0120065,-0.000878033,0.0120386,-4.18258,22.444,0,JT_VTC_008,80
2000,201.99,7500,0.0117405,-0.00071981,0.0117626,-3.508405,23.29989,35,JT_VTC_008,80
2000,201.99,10000,0.0117287,-0.000671404,0.0117479,-3.27631,22.8319,20,JT_VTC_008,80
2000,201.99,10000,0.0117189,-0.000725429,0.0117413,-3.542225,23.29989,35,JT_VTC_008,80